Gyro_x,Gyro_y,Gyro_z,Acc_x,Acc_y,Acc_z,Euler_x,Euler_y,Euler_z,Quat_0,Quat_1,Quat_2,Quat_3
-0.0625,0.375,0,-0.09,0.04,9.54,-0.5625,-0.8125,328.125,0.96167,0.00292969,0.00854492,0.274048
0.1875,-0.0625,0,-0.07,0.07,9.61,-0.5625,-0.8125,328.125,0.96167,0.00292969,0.00854492,0.274048
0.0625,-0.4375,0,-0.06,0.08,9.65,-0.5625,-0.8125,328.125,0.96167,0.00292969,0.00854492,0.274048
-0.1875,-0.5625,0.0625,-0.05,0.04,9.55,-0.5625,-0.8125,328.125,0.96167,0.00292969,0.00854492,0.274048
-0.375,-0.4375,0.1875,-0.05,0.03,9.52,-0.5625,-0.8125,328.125,0.96167,0.00292969,0.00854492,0.274048
-0.3125,-0.375,-0.0625,-0.06,0.02,9.54,-0.5625,-0.8125,328.125,0.96167,0.00292969,0.00854492,0.274048
0,-0.3125,0.0625,-0.05,0.06,9.59,-0.5625,-0.8125,328.125,0.96167,0.00292969,0.00854492,0.274048
0.25,0,0,-0.05,0.03,9.58,-0.5625,-0.8125,328.125,0.96167,0.00292969,0.00854492,0.274048
0.1875,0.125,-0.0625,-0.04,0.05,9.61,-0.5625,-0.8125,328.125,0.96167,0.00292969,0.00854492,0.274048
0.125,0.25,-0.125,-0.04,0.07,9.57,-0.5625,-0.8125,328.125,0.96167,0.00292969,0.00854492,0.274048
0,0.5,-0.125,-0.08,0.04,9.58,-0.5625,-0.8125,328.125,0.96167,0.00292969,0.00854492,0.274048
0.125,0.3125,0,-0.09,0.05,9.56,-0.5625,-0.8125,328.125,0.96167,0.00292969,0.00854492,0.274048
0,0.1875,0.1875,-0.07,0.02,9.58,-0.5625,-0.8125,328.125,0.96167,0.00292969,0.00854492,0.274048
-0.0625,-0.125,0.125,-0.08,0.04,9.57,-0.5625,-0.8125,328.125,0.96167,0.00292969,0.00854492,0.274048
0.0625,-0.1875,0,-0.07,0.03,9.59,-0.5625,-0.8125,328.125,0.96167,0.00292969,0.00854492,0.274048
-0.0625,-0.375,0,-0.06,0.05,9.58,-0.5625,-0.8125,328.125,0.96167,0.00292969,0.00854492,0.274048
-0.0625,-0.25,-0.0625,-0.05,0.05,9.59,-0.5625,-0.8125,328.125,0.96167,0.00292969,0.00854492,0.274048
-0.125,-0.5,-0.125,-0.04,0.03,9.6,-0.5625,-0.8125,328.125,0.96167,0.00292969,0.00854492,0.274048
-0.1875,-0.3125,0,-0.05,0.05,9.55,-0.5625,-0.8125,328.125,0.96167,0.00292969,0.00854492,0.274048
-0.1875,-0.1875,0,-0.06,0.03,9.54,-0.5625,-0.8125,328.125,0.96167,0.00292969,0.00854492,0.274048
-0.0625,0.0625,0,-0.06,0.04,9.57,-0.5625,-0.8125,328.125,0.96167,0.00292969,0.00854492,0.274048
0.125,0.1875,0.0625,-0.06,0.03,9.58,-0.5625,-0.8125,328.125,0.96167,0.00292969,0.00854492,0.274048
0.25,0.25,0,-0.08,0.03,9.58,-0.5625,-0.8125,328.125,0.96167,0.00292969,0.00854492,0.274048
0.125,0.375,-0.125,-0.08,0.05,9.61,-0.5625,-0.8125,328.125,0.96167,0.00292969,0.00854492,0.274048
0.125,0.3125,0,-0.06,0.06,9.6,-0.5625,-0.8125,328.125,0.96167,0.00292969,0.00854492,0.274048
-0.0625,0.375,0,-0.07,0.04,9.53,-0.5625,-0.8125,328.125,0.96167,0.00292969,0.00854492,0.274048
-0.0625,0.125,0,-0.07,0.05,9.59,-0.5625,-0.8125,328.125,0.96167,0.00292969,0.00854492,0.274048
-0.0625,-0.0625,0.125,-0.07,0.03,9.59,-0.5625,-0.8125,328.125,0.96167,0.00292969,0.00854492,0.274048
-0.0625,-0.375,-0.0625,-0.07,0.07,9.57,-0.5625,-0.8125,328.125,0.96167,0.00292969,0.00854492,0.274048
0.0625,-0.625,0.0625,-0.02,0.04,9.55,-0.5625,-0.8125,328.125,0.96167,0.00292969,0.00854492,0.274048
-0.1875,-0.4375,-0.0625,-0.04,0.05,9.56,-0.5625,-0.8125,328.125,0.96167,0.00292969,0.00854492,0.274048
-0.25,-0.25,-0.0625,-0.05,0.04,9.59,-0.5625,-0.8125,328.125,0.96167,0.00292969,0.00854492,0.274048
-0.125,-0.125,0,-0.05,0.03,9.58,-0.5625,-0.8125,328.125,0.96167,0.00292969,0.00854492,0.274048
-0.0625,0.1875,0,-0.06,0.04,9.55,-0.5625,-0.8125,328.125,0.96167,0.00292969,0.00854492,0.274048
0.0625,0.25,0.0625,-0.06,0.05,9.57,-0.5625,-0.8125,328.125,0.96167,0.00292969,0.00854492,0.274048
0.0625,0.125,0,-0.05,0.04,9.57,-0.5625,-0.8125,328.125,0.96167,0.00292969,0.00854492,0.274048
0.0625,0.25,0,-0.08,0.05,9.58,-0.5625,-0.8125,328.125,0.96167,0.00292969,0.00854492,0.274048
0.0625,0.25,-0.125,-0.06,0.04,9.58,-0.5625,-0.8125,328.125,0.96167,0.00292969,0.00854492,0.274048
0.0625,0.25,-0.125,-0.07,0.04,9.55,-0.5625,-0.8125,328.125,0.96167,0.00292969,0.00854492,0.274048
0.0625,0.3125,-0.0625,-0.06,0.04,9.55,-0.5625,-0.8125,328.125,0.96167,0.00292969,0.00854492,0.274048
-0.0625,0.25,0,-0.07,0.05,9.56,-0.5625,-0.8125,328.125,0.96167,0.00292969,0.00854492,0.274048
0,-0.125,0,-0.09,0.06,9.56,-0.5625,-0.8125,328.125,0.96167,0.00292969,0.00854492,0.274048
-0.0625,-0.3125,0,-0.06,0.04,9.6,-0.5625,-0.8125,328.125,0.96167,0.00292969,0.00854492,0.274048
-0.0625,-0.25,0,-0.07,0.06,9.6,-0.5625,-0.8125,328.125,0.96167,0.00292969,0.00854492,0.274048
-0.0625,-0.4375,0.0625,-0.07,0.05,9.58,-0.5625,-0.8125,328.125,0.96167,0.00292969,0.00854492,0.274048
0,-0.625,-0.0625,-0.05,0.06,9.56,-0.5625,-0.8125,328.125,0.96167,0.00292969,0.00848389,0.274048
-0.0625,-0.1875,0,-0.07,0.03,9.58,-0.5625,-0.8125,328.125,0.96167,0.00292969,0.00848389,0.274048
0.0625,-0.125,0,-0.06,0.03,9.59,-0.5625,-0.8125,328.125,0.96167,0.00292969,0.00848389,0.274048
0.0625,0.3125,0.0625,-0.05,0.04,9.58,-0.5625,-0.8125,328.125,0.96167,0.00292969,0.00848389,0.274048
0.0625,0.4375,0,-0.06,0.03,9.57,-0.5625,-0.8125,328.125,0.96167,0.00292969,0.00848389,0.274048
0.0625,0.5625,-0.125,-0.07,0.05,9.56,-0.5625,-0.8125,328.125,0.96167,0.00292969,0.00848389,0.274048
0,0.3125,0.125,-0.08,0.04,9.57,-0.5625,-0.8125,328.125,0.96167,0.00292969,0.00848389,0.274048
0,0.25,-0.1875,-0.07,0.04,9.58,-0.5625,-0.8125,328.125,0.96167,0.00292969,0.00848389,0.274048
0.125,0.125,0,-0.08,0.05,9.54,-0.5625,-0.8125,328.125,0.96167,0.00292969,0.00848389,0.274048
-0.125,0.125,0,-0.08,0.05,9.58,-0.5625,-0.8125,328.125,0.96167,0.00292969,0.00848389,0.274048
-0.1875,-0.0625,0,-0.08,0.03,9.58,-0.5625,-0.8125,328.125,0.96167,0.00292969,0.00848389,0.274048
-0.0625,0,0,-0.06,0.03,9.57,-0.5625,-0.8125,328.125,0.96167,0.00292969,0.00848389,0.274048
-0.0625,0.0625,-0.0625,-0.07,0.04,9.58,-0.5625,-0.8125,328.125,0.96167,0.00292969,0.00848389,0.274048
-0.0625,-0.0625,0,-0.06,0.03,9.56,-0.5625,-0.8125,328.125,0.96167,0.00292969,0.00848389,0.274048
0.0625,-0.1875,-0.0625,-0.06,0.06,9.57,-0.5625,-0.8125,328.125,0.96167,0.00292969,0.00848389,0.274048
0.0625,-0.1875,-0.0625,-0.06,0.04,9.56,-0.5625,-0.8125,328.125,0.96167,0.00292969,0.00848389,0.274048
0,-0.125,0,-0.06,0.03,9.58,-0.5625,-0.8125,328.125,0.96167,0.00292969,0.00848389,0.274048
0,0,0,-0.07,0.04,9.58,-0.5625,-0.8125,328.125,0.96167,0.00292969,0.00848389,0.274048
0.0625,0.25,-0.0625,-0.05,0.03,9.57,-0.5625,-0.8125,328.125,0.96167,0.00292969,0.00848389,0.274048
0.125,0.3125,-0.0625,-0.04,0.02,9.57,-0.5625,-0.8125,328.125,0.96167,0.00292969,0.00848389,0.274048
0.125,0.1875,0.0625,-0.07,0.05,9.57,-0.5625,-0.8125,328.125,0.96167,0.00292969,0.00848389,0.274048
0,0.25,0.0625,-0.06,0.06,9.58,-0.5625,-0.8125,328.125,0.96167,0.00292969,0.00848389,0.274048
0.0625,0.0625,0,-0.07,0.06,9.6,-0.5625,-0.8125,328.125,0.96167,0.00292969,0.00848389,0.274048
0,0.0625,0.0625,-0.09,0.04,9.58,-0.5625,-0.8125,328.125,0.96167,0.00292969,0.00848389,0.274048
-0.1875,-0.1875,0,-0.09,0.06,9.57,-0.5625,-0.8125,328.125,0.96167,0.00292969,0.00848389,0.274048
0.0625,-0.125,0,-0.08,0.03,9.56,-0.5625,-0.8125,328.125,0.96167,0.00292969,0.00848389,0.274048
-0.0625,0,-0.0625,-0.05,0.05,9.57,-0.5625,-0.8125,328.125,0.96167,0.00292969,0.00848389,0.274048
0.0625,-0.3125,0,-0.06,0.06,9.54,-0.5625,-0.8125,328.125,0.96167,0.00292969,0.00848389,0.274048
0.0625,-0.1875,-0.0625,-0.08,0.03,9.59,-0.5625,-0.8125,328.125,0.96167,0.00292969,0.00848389,0.274048
0,0.0625,0.0625,-0.07,0.06,9.58,-0.5625,-0.8125,328.125,0.96167,0.00292969,0.00848389,0.274048
-0.0625,-0.0625,-0.0625,-0.06,0.06,9.58,-0.5625,-0.8125,328.125,0.96167,0.00292969,0.00848389,0.274048
-0.1875,-0.125,0.125,-0.06,0.02,9.58,-0.5625,-0.8125,328.125,0.96167,0.00292969,0.00848389,0.274048
0.0625,0,0.0625,-0.04,0.03,9.57,-0.5625,-0.8125,328.125,0.96167,0.00292969,0.00848389,0.274048
-0.0625,-0.3125,0.125,-0.05,0.04,9.57,-0.5625,-0.8125,328.125,0.96167,0.00292969,0.00848389,0.274048
0,0,-0.125,-0.05,0.03,9.61,-0.5625,-0.8125,328.125,0.96167,0.00292969,0.00848389,0.274048
0.1875,0.8125,0.0625,-0.07,0.02,9.59,-0.5625,-0.8125,328.125,0.96167,0.00292969,0.00854492,0.274048
0.1875,1.1875,0.0625,-0.09,0.05,9.57,-0.5625,-0.8125,328.125,0.96167,0.00292969,0.00860596,0.274048
0.5625,0.75,0.125,-0.09,0.08,9.54,-0.5625,-0.8125,328.125,0.96167,0.00286865,0.00866699,0.274048
0.3125,-0.1875,-0.125,-0.08,0.06,9.64,-0.5625,-0.8125,328.125,0.96167,0.00286865,0.00866699,0.274048
-0.3125,-0.6875,-0.125,-0.06,0.04,9.62,-0.5625,-0.8125,328.125,0.96167,0.00292969,0.00860596,0.274048
-0.6875,-1.3125,-0.0625,-0.06,0.06,9.57,-0.5625,-0.8125,328.125,0.96167,0.00286865,0.00848389,0.274048
-0.625,-1.3125,0,-0.04,0,9.55,-0.5625,-0.8125,328.125,0.96167,0.00286865,0.00836182,0.274048
-0.3125,-0.75,0.125,-0.03,0.02,9.5,-0.5625,-0.8125,328.125,0.96167,0.00286865,0.00830078,0.274048
0.25,-0.375,0.0625,-0.02,0.02,9.53,-0.5625,-0.8125,328.125,0.96167,0.00286865,0.00830078,0.274048
0.625,0.25,-0.125,-0.02,0.08,9.61,-0.5625,-0.8125,328.125,0.96167,0.00292969,0.00836182,0.274048
0.3125,1.5,-0.0625,-0.05,0.05,9.62,-0.5625,-0.8125,328.125,0.96167,0.00286865,0.00848389,0.274048
0.25,2.125,-0.1875,-0.06,0.05,9.59,-0.5625,-0.8125,328.125,0.96167,0.00286865,0.00866699,0.274048
0.0625,1.4375,-0.0625,-0.09,0.06,9.56,-0.5625,-0.875,328.125,0.96167,0.00280762,0.00872803,0.274048
-0.0625,0.375,0.125,-0.11,0.01,9.53,-0.5625,-0.875,328.125,0.96167,0.00280762,0.00872803,0.274048
0.0625,-0.4375,0.125,-0.11,0.02,9.57,-0.5625,-0.875,328.125,0.96167,0.00280762,0.00872803,0.274048
0,-0.75,0,-0.11,0.04,9.57,-0.5625,-0.8125,328.125,0.96167,0.00280762,0.00866699,0.274048
-0.0625,-0.6875,-0.125,-0.09,0.05,9.58,-0.5625,-0.8125,328.125,0.96167,0.00286865,0.00866699,0.274048
-0.25,-0.75,-0.1875,-0.03,0.06,9.58,-0.5625,-0.8125,328.125,0.96167,0.00286865,0.00860596,0.274048
-0.1875,-0.4375,-0.0625,-0.04,0.05,9.56,-0.5625,-0.8125,328.125,0.96167,0.00286865,0.00860596,0.274048
-0.25,0,-0.0625,-0.02,0.03,9.58,-0.5625,-0.8125,328.125,0.96167,0.00286865,0.00860596,0.274048
-0.1875,0.1875,-0.0625,-0.04,0.04,9.57,-0.5625,-0.8125,328.125,0.96167,0.00286865,0.00860596,0.274048
-0.0625,0.1875,0.125,-0.06,0.02,9.57,-0.5625,-0.8125,328.125,0.96167,0.00286865,0.00860596,0.274048
0,-0.0625,0.0625,-0.07,0.03,9.59,-0.5625,-0.8125,328.125,0.96167,0.00286865,0.00860596,0.274048
0.0625,-0.1875,-0.0625,-0.06,0.03,9.55,-0.5625,-0.8125,328.125,0.96167,0.00286865,0.00860596,0.274048
0.125,0,-0.1875,-0.04,0.05,9.58,-0.5625,-0.8125,328.125,0.96167,0.00286865,0.00860596,0.274048
0,0.3125,-0.0625,-0.05,0.05,9.59,-0.5625,-0.8125,328.125,0.96167,0.00286865,0.00860596,0.274048
0,0.6875,0.0625,-0.06,0.07,9.57,-0.5625,-0.8125,328.125,0.96167,0.00286865,0.00860596,0.274048
0.0625,0.8125,0,-0.06,0.05,9.56,-0.5625,-0.8125,328.125,0.96167,0.00280762,0.00872803,0.274048
0.1875,0.625,0.1875,-0.09,0.04,9.54,-0.5625,-0.875,328.125,0.96167,0.00280762,0.00872803,0.274048
0.1875,0.3125,0.125,-0.11,0.04,9.57,-0.5625,-0.875,328.125,0.96167,0.00280762,0.00872803,0.274048
0,-0.1875,-0.0625,-0.1,0.04,9.57,-0.5625,-0.875,328.125,0.96167,0.00280762,0.00872803,0.274048
-0.1875,-0.6875,0,-0.07,0.05,9.59,-0.5625,-0.8125,328.125,0.96167,0.00280762,0.00866699,0.274048
-0.3125,-0.6875,-0.125,-0.05,0.05,9.59,-0.5625,-0.8125,328.125,0.96167,0.00286865,0.00866699,0.274048
-0.25,-0.5625,-0.1875,-0.01,0.04,9.55,-0.5625,-0.8125,328.125,0.96167,0.00286865,0.00866699,0.274048
-0.125,-0.5,0,-0.03,0.02,9.56,-0.5625,-0.8125,328.125,0.96167,0.00286865,0.00866699,0.274048
0,0.125,0.125,-0.05,0.03,9.57,-0.5625,-0.8125,328.125,0.96167,0.00286865,0.00866699,0.274048
0.0625,0.4375,0.0625,-0.07,0.05,9.58,-0.5625,-0.8125,328.125,0.96167,0.00286865,0.00866699,0.274048
0.125,0.875,-0.0625,-0.06,0.06,9.56,-0.5625,-0.8125,328.125,0.96167,0.00280762,0.00872803,0.274048
0.1875,0.5625,-0.125,-0.08,0.04,9.59,-0.5625,-0.8125,328.125,0.96167,0.00280762,0.00872803,0.274048
0.1875,0.25,-0.0625,-0.07,0.05,9.58,-0.5625,-0.8125,328.125,0.96167,0.00280762,0.00872803,0.274048
-0.0625,0.25,-0.0625,-0.07,0.06,9.58,-0.5625,-0.8125,328.125,0.96167,0.00280762,0.00872803,0.274048
-0.125,-0.0625,-0.0625,-0.06,0.05,9.57,-0.5625,-0.8125,328.125,0.96167,0.00280762,0.00872803,0.274048
-0.0625,-0.0625,0.0625,-0.06,0.04,9.58,-0.5625,-0.8125,328.125,0.96167,0.00280762,0.00872803,0.274048
0.0625,0,0.0625,-0.07,0.04,9.58,-0.5625,-0.8125,328.125,0.96167,0.00280762,0.00872803,0.274048
0,0.1875,0,-0.05,0.04,9.58,-0.5625,-0.8125,328.125,0.96167,0.00280762,0.00872803,0.274048
0,0.0625,-0.0625,-0.08,0.04,9.57,-0.5625,-0.8125,328.125,0.96167,0.00280762,0.00872803,0.274048
0,0,-0.0625,-0.05,0.03,9.59,-0.5625,-0.8125,328.125,0.96167,0.00280762,0.00872803,0.274048
-0.0625,-0.0625,0,-0.05,0.04,9.55,-0.5625,-0.8125,328.125,0.96167,0.00280762,0.00872803,0.274048
-0.0625,-0.4375,-0.125,-0.06,0.02,9.58,-0.5625,-0.8125,328.125,0.96167,0.00280762,0.00872803,0.274048
-0.125,-0.4375,0.125,-0.03,0.05,9.56,-0.5625,-0.8125,328.125,0.96167,0.00280762,0.00872803,0.274048
-0.0625,-0.25,0.1875,-0.05,0.04,9.56,-0.5625,-0.8125,328.125,0.96167,0.00280762,0.00872803,0.274048
0.0625,0,-0.0625,-0.05,0.05,9.59,-0.5625,-0.8125,328.125,0.96167,0.00280762,0.00872803,0.274048
0.0625,0.375,0,-0.05,0.03,9.59,-0.5625,-0.8125,328.125,0.96167,0.00280762,0.00872803,0.274048
0.125,0.5625,-0.0625,-0.05,0.06,9.57,-0.5625,-0.8125,328.125,0.96167,0.00280762,0.00872803,0.274048
0.0625,0.5625,-0.0625,-0.05,0.05,9.56,-0.5625,-0.8125,328.125,0.96167,0.00280762,0.00872803,0.274048
0.125,0.4375,-0.0625,-0.07,0.04,9.59,-0.5625,-0.8125,328.125,0.96167,0.00280762,0.00872803,0.274048
0.125,-0.0625,0.125,-0.07,0.04,9.59,-0.5625,-0.8125,328.125,0.96167,0.00280762,0.00872803,0.274048
0.0625,-0.1875,-0.0625,-0.09,0.04,9.6,-0.5625,-0.8125,328.125,0.96167,0.00280762,0.00872803,0.274048
-0.0625,-0.25,-0.0625,-0.05,0.01,9.55,-0.5625,-0.8125,328.125,0.96167,0.00280762,0.00872803,0.274048
-0.0625,-0.4375,0,-0.06,0.05,9.57,-0.5625,-0.8125,328.125,0.96167,0.00280762,0.00872803,0.274048
0.0625,-0.375,0,-0.07,0.06,9.59,-0.5625,-0.8125,328.125,0.96167,0.00280762,0.00872803,0.274048
-0.125,-0.125,0.0625,-0.05,0.03,9.56,-0.5625,-0.8125,328.125,0.96167,0.00280762,0.00872803,0.274048
0,0.0625,-0.125,-0.05,0.03,9.58,-0.5625,-0.8125,328.125,0.96167,0.00280762,0.00872803,0.274048
-0.125,0.25,0,-0.05,0.04,9.57,-0.5625,-0.8125,328.125,0.96167,0.00280762,0.00872803,0.274048
0.0625,0.25,-0.0625,-0.06,0.04,9.53,-0.5625,-0.8125,328.125,0.96167,0.00280762,0.00872803,0.274048
-0.0625,0.0625,0.0625,-0.06,0.04,9.54,-0.5625,-0.8125,328.125,0.96167,0.00280762,0.00872803,0.274048
0,-0.0625,0,-0.06,0.03,9.58,-0.5625,-0.8125,328.125,0.96167,0.00280762,0.00872803,0.274048
0.0625,0.1875,-0.0625,-0.06,0.06,9.59,-0.5625,-0.8125,328.125,0.96167,0.00280762,0.00872803,0.274048
-0.0625,0.3125,-0.125,-0.05,0.05,9.59,-0.5625,-0.8125,328.125,0.96167,0.00280762,0.00872803,0.274048
0.0625,0.0625,0.0625,-0.07,0.06,9.58,-0.5625,-0.8125,328.125,0.96167,0.00280762,0.00872803,0.274048
0.0625,0.0625,0,-0.09,0.05,9.59,-0.5625,-0.8125,328.125,0.96167,0.00280762,0.00872803,0.274048
-0.125,0.125,0.125,-0.08,0.06,9.57,-0.5625,-0.8125,328.125,0.96167,0.00280762,0.00872803,0.274048
0,0,0,-0.07,0.05,9.57,-0.5625,-0.8125,328.125,0.96167,0.00280762,0.00872803,0.274048
-0.0625,-0.1875,-0.0625,-0.09,0.07,9.58,-0.5625,-0.8125,328.125,0.96167,0.00280762,0.00872803,0.274048
-0.1875,-0.1875,-0.0625,-0.06,0.04,9.56,-0.5625,-0.8125,328.125,0.96167,0.00280762,0.00872803,0.274048
-0.1875,-0.125,0,-0.06,0.05,9.57,-0.5625,-0.8125,328.125,0.96167,0.00280762,0.00872803,0.274048
0,-0.1875,-0.0625,-0.06,0.06,9.6,-0.5625,-0.8125,328.125,0.96167,0.00280762,0.00872803,0.274048
0.0625,0.1875,0,-0.05,0.03,9.59,-0.5625,-0.8125,328.125,0.96167,0.00280762,0.00872803,0.274048
-0.0625,0.375,0,-0.06,0.02,9.55,-0.5625,-0.8125,328.125,0.96167,0.00280762,0.00872803,0.274048
0.0625,0.4375,0,-0.07,0.07,9.55,-0.5625,-0.8125,328.125,0.96167,0.00280762,0.00872803,0.274048
0.0625,0.25,-0.125,-0.07,0.05,9.57,-0.5625,-0.8125,328.125,0.96167,0.00280762,0.00872803,0.274048
0.0625,-0.125,0,-0.07,0.06,9.59,-0.5625,-0.8125,328.125,0.96167,0.00280762,0.00872803,0.274048
0.0625,0,0,-0.08,0.05,9.61,-0.5625,-0.8125,328.125,0.96167,0.00280762,0.00872803,0.274048
-0.125,-0.0625,0,-0.07,0.04,9.59,-0.5625,-0.8125,328.125,0.96167,0.00280762,0.00872803,0.274048
-0.0625,-0.125,-0.0625,-0.06,0.06,9.57,-0.5625,-0.8125,328.125,0.96167,0.00280762,0.00872803,0.274048
-0.125,0.0625,0,-0.07,0.03,9.55,-0.5625,-0.8125,328.125,0.96167,0.00280762,0.00872803,0.274048
-0.0625,-0.125,-0.0625,-0.06,0.05,9.58,-0.5625,-0.8125,328.125,0.96167,0.00280762,0.00872803,0.274048
0,0,0.0625,-0.07,0.04,9.6,-0.5625,-0.8125,328.125,0.96167,0.00280762,0.00872803,0.274048
0,0.1875,0.0625,-0.04,0.03,9.56,-0.5625,-0.8125,328.125,0.96167,0.00280762,0.00872803,0.274048
0,0.0625,0.0625,-0.07,0.04,9.59,-0.5625,-0.8125,328.125,0.96167,0.00280762,0.00872803,0.274048
0,0.125,0.0625,-0.07,0.01,9.56,-0.5625,-0.8125,328.125,0.96167,0.00280762,0.00872803,0.274048
0.0625,0.125,0,-0.06,0.03,9.57,-0.5625,-0.8125,328.125,0.96167,0.00280762,0.00872803,0.274048
-0.0625,0.0625,0.0625,-0.07,0.02,9.58,-0.5625,-0.8125,328.125,0.96167,0.00280762,0.00872803,0.274048
0,0.125,0,-0.05,0.05,9.56,-0.5625,-0.8125,328.125,0.96167,0.00280762,0.00872803,0.274048
0,-0.0625,0.0625,-0.06,0.05,9.57,-0.5625,-0.8125,328.125,0.96167,0.00280762,0.00872803,0.274048
0.0625,-0.0625,0,-0.08,0.05,9.57,-0.5625,-0.8125,328.125,0.96167,0.00280762,0.00872803,0.274048
0.125,-0.0625,-0.0625,-0.06,0.06,9.59,-0.5625,-0.8125,328.125,0.96167,0.00280762,0.00872803,0.274048
0.0625,0.0625,-0.0625,-0.07,0.06,9.57,-0.5625,-0.8125,328.125,0.96167,0.00280762,0.00872803,0.274048
0,0.125,-0.125,-0.05,0.05,9.6,-0.5625,-0.8125,328.125,0.96167,0.00280762,0.00872803,0.274048
-0.125,-0.1875,-0.0625,-0.07,0.02,9.58,-0.5625,-0.8125,328.125,0.96167,0.00280762,0.00872803,0.274048
-0.0625,0.3125,0,-0.06,0.04,9.55,-0.5625,-0.8125,328.125,0.96167,0.00280762,0.00872803,0.274048
-0.125,0.125,-0.0625,-0.06,0.01,9.54,-0.5625,-0.8125,328.125,0.96167,0.00280762,0.00872803,0.274048
0.125,0.0625,0.125,-0.08,0.06,9.56,-0.5625,-0.8125,328.125,0.96167,0.00280762,0.00872803,0.274048
0.25,-0.3125,-0.0625,-0.04,0.04,9.6,-0.5625,-0.8125,328.125,0.96167,0.00280762,0.00872803,0.274048
-0.0625,-0.0625,0,-0.05,0.06,9.61,-0.5625,-0.8125,328.125,0.96167,0.00280762,0.00872803,0.274048
-0.0625,0,-0.0625,-0.05,0.04,9.57,-0.5625,-0.8125,328.125,0.96167,0.00280762,0.00872803,0.274048
-0.1875,0.375,0,-0.05,0.02,9.55,-0.5625,-0.8125,328.125,0.96167,0.00280762,0.00872803,0.274048
-0.1875,0.3125,-0.0625,-0.08,0.02,9.57,-0.5625,-0.8125,328.125,0.96167,0.00280762,0.00872803,0.274048
0.0625,0,-0.0625,-0.07,0.04,9.58,-0.5625,-0.8125,328.125,0.96167,0.00280762,0.00872803,0.274048
0.0625,-0.125,0,-0.06,0.06,9.58,-0.5625,-0.8125,328.125,0.96167,0.00280762,0.00872803,0.274048
0.0625,0.0625,0,-0.05,0.05,9.59,-0.5625,-0.8125,328.125,0.96167,0.00280762,0.00872803,0.274048
0,0.0625,-0.0625,-0.07,0.02,9.58,-0.5625,-0.8125,328.125,0.96167,0.00280762,0.00872803,0.274048
0,0.1875,-0.0625,-0.07,0.03,9.57,-0.5625,-0.8125,328.125,0.96167,0.00280762,0.00872803,0.274048
-0.125,-0.0625,0.125,-0.04,0.02,9.54,-0.5625,-0.8125,328.125,0.96167,0.00280762,0.00872803,0.274048
-0.0625,0.25,0.0625,-0.08,0.04,9.56,-0.5625,-0.8125,328.125,0.96167,0.00280762,0.00872803,0.274048
0.0625,-0.0625,0.0625,-0.06,0.05,9.57,-0.5625,-0.8125,328.125,0.96167,0.00280762,0.00872803,0.274048
0.0625,-0.125,0,-0.05,0.06,9.62,-0.5625,-0.8125,328.125,0.96167,0.00280762,0.00872803,0.274048
0,-0.125,-0.1875,-0.07,0.06,9.61,-0.5625,-0.8125,328.125,0.96167,0.00280762,0.00872803,0.274048
0,0.0625,0,-0.07,0.05,9.57,-0.5625,-0.8125,328.125,0.96167,0.00280762,0.00872803,0.274048
-0.1875,0.1875,0,-0.06,0.03,9.57,-0.5625,-0.8125,328.125,0.96167,0.00280762,0.00872803,0.274048
-0.0625,0,0.0625,-0.06,0.05,9.55,-0.5625,-0.8125,328.125,0.96167,0.00280762,0.00872803,0.274048
-0.0625,0.0625,0,-0.07,0.04,9.56,-0.5625,-0.8125,328.125,0.96167,0.00280762,0.00872803,0.274048
0.0625,0.0625,0.0625,-0.08,0.03,9.56,-0.5625,-0.8125,328.125,0.96167,0.00280762,0.00872803,0.274048
0,-0.125,0,-0.07,0.03,9.56,-0.5625,-0.8125,328.125,0.96167,0.00280762,0.00872803,0.274048
-0.0625,-0.0625,-0.0625,-0.06,0.04,9.55,-0.5625,-0.8125,328.125,0.96167,0.00280762,0.00872803,0.274048
-0.0625,-0.0625,-0.0625,-0.06,0.04,9.55,-0.5625,-0.8125,328.125,0.96167,0.00280762,0.00872803,0.274048
0.0625,-0.125,-0.125,-0.05,0.02,9.59,-0.5625,-0.8125,328.125,0.96167,0.00280762,0.00872803,0.274048
-0.125,0.0625,0,-0.05,0.05,9.59,-0.5625,-0.8125,328.125,0.96167,0.00280762,0.00872803,0.274048
0,-0.0625,0,-0.07,0.02,9.58,-0.5625,-0.8125,328.125,0.96167,0.00280762,0.00872803,0.274048
0,0,0.0625,-0.07,0.04,9.58,-0.5625,-0.8125,328.125,0.96167,0.00280762,0.00872803,0.274048
0.0625,0.0625,0,-0.06,0.04,9.57,-0.5625,-0.8125,328.125,0.96167,0.00280762,0.00872803,0.274048
0.0625,0.0625,0.0625,-0.05,0.05,9.58,-0.5625,-0.8125,328.125,0.96167,0.00280762,0.00872803,0.274048
0,-0.125,-0.125,-0.05,0.03,9.61,-0.5625,-0.8125,328.125,0.96167,0.00280762,0.00872803,0.274048
0.0625,-0.0625,0,-0.06,0.05,9.57,-0.5625,-0.8125,328.125,0.96167,0.00280762,0.00872803,0.274048
-0.0625,-0.375,0,-0.07,0.06,9.58,-0.5625,-0.8125,328.125,0.96167,0.00280762,0.00872803,0.274048
-0.125,-0.0625,0.0625,-0.05,0.04,9.58,-0.5625,-0.8125,328.125,0.96167,0.00280762,0.00872803,0.274048
-0.125,-0.0625,0.125,-0.06,0.05,9.58,-0.5625,-0.8125,328.125,0.96167,0.00280762,0.00872803,0.274048
0.0625,-0.0625,-0.0625,-0.06,0.03,9.58,-0.5625,-0.8125,328.125,0.96167,0.00280762,0.00872803,0.274048
-0.0625,0,-0.0625,-0.06,0.04,9.57,-0.5625,-0.8125,328.125,0.96167,0.00280762,0.00872803,0.274048
0.1875,0.1875,-0.0625,-0.06,0.05,9.58,-0.5625,-0.8125,328.125,0.96167,0.00280762,0.00872803,0.274048
-0.0625,0.0625,-0.125,-0.07,0.03,9.57,-0.5625,-0.8125,328.125,0.96167,0.00280762,0.00872803,0.274048
0,-0.125,0.0625,-0.04,0.04,9.6,-0.5625,-0.8125,328.125,0.96167,0.00280762,0.00872803,0.274048
0,-0.0625,-0.0625,-0.04,0.03,9.58,-0.5625,-0.8125,328.125,0.96167,0.00280762,0.00872803,0.274048
0,0,0,-0.07,0.06,9.56,-0.5625,-0.8125,328.125,0.96167,0.00280762,0.00872803,0.274048
0,0,0,-0.07,0.07,9.56,-0.5625,-0.8125,328.125,0.96167,0.00280762,0.00872803,0.274048
0.0625,0,-0.125,-0.05,0.05,9.58,-0.5625,-0.8125,328.125,0.96167,0.00280762,0.00872803,0.274048
-0.0625,0,-0.0625,-0.07,0.04,9.58,-0.5625,-0.8125,328.125,0.96167,0.00280762,0.00872803,0.274048
-0.0625,-0.125,-0.125,-0.06,0.06,9.59,-0.5625,-0.8125,328.125,0.96167,0.00280762,0.00872803,0.274048
-0.0625,-0.1875,0.0625,-0.05,0.06,9.58,-0.5625,-0.8125,328.125,0.96167,0.00280762,0.00872803,0.274048
-0.0625,-0.125,0,-0.06,0.05,9.56,-0.5625,-0.8125,328.125,0.96167,0.00280762,0.00872803,0.274048
0.0625,-0.125,0.0625,-0.06,0.03,9.57,-0.5625,-0.8125,328.125,0.96167,0.00280762,0.00872803,0.274048
0,0,-0.0625,-0.06,0.04,9.58,-0.5625,-0.8125,328.125,0.96167,0.00280762,0.00872803,0.274048
0.0625,-0.0625,-0.0625,-0.08,0.06,9.59,-0.5625,-0.8125,328.125,0.96167,0.00280762,0.00872803,0.274048
0.0625,0.0625,-0.0625,-0.07,0.04,9.57,-0.5625,-0.8125,328.125,0.96167,0.00280762,0.00872803,0.274048
0,0.0625,-0.0625,-0.05,0.04,9.57,-0.5625,-0.8125,328.125,0.96167,0.00280762,0.00872803,0.274048
0.0625,0.0625,0.0625,-0.07,0.04,9.58,-0.5625,-0.8125,328.125,0.96167,0.00280762,0.00872803,0.274048
-0.125,0.25,0.0625,-0.06,0.04,9.54,-0.5625,-0.8125,328.125,0.96167,0.00280762,0.00872803,0.274048
0,0.0625,-0.0625,-0.07,0.04,9.59,-0.5625,-0.8125,328.125,0.96167,0.00280762,0.00872803,0.274048
0,-0.1875,-0.0625,-0.06,0.06,9.56,-0.5625,-0.8125,328.125,0.96167,0.00280762,0.00872803,0.274048
0.0625,-0.0625,0.0625,-0.06,0.06,9.58,-0.5625,-0.8125,328.125,0.96167,0.00280762,0.00872803,0.274048
0,-0.1875,0,-0.06,0.04,9.58,-0.5625,-0.8125,328.125,0.96167,0.00280762,0.00872803,0.274048
0,-0.25,-0.0625,-0.07,0.04,9.57,-0.5625,-0.8125,328.125,0.96167,0.00280762,0.00872803,0.274048
0.125,0,-0.125,-0.05,0.04,9.57,-0.5625,-0.8125,328.125,0.96167,0.00280762,0.00872803,0.274048
0,-0.0625,0.0625,-0.06,0.05,9.58,-0.5625,-0.8125,328.125,0.96167,0.00280762,0.00872803,0.274048
0,-0.0625,0.0625,-0.07,0.02,9.56,-0.5625,-0.8125,328.125,0.96167,0.00280762,0.00872803,0.274048
0,0.0625,0,-0.07,0.04,9.54,-0.5625,-0.8125,328.125,0.96167,0.00280762,0.00872803,0.274048
0,-0.0625,0.1875,-0.06,0.05,9.58,-0.5625,-0.8125,328.125,0.96167,0.00280762,0.00872803,0.274048
0,0.125,0.125,-0.06,0.01,9.6,-0.5625,-0.8125,328.125,0.96167,0.00280762,0.00872803,0.274048
-0.0625,0,-0.0625,-0.06,0.04,9.59,-0.5625,-0.8125,328.125,0.96167,0.00280762,0.00872803,0.274048
0.0625,-0.1875,0.0625,-0.07,0.03,9.55,-0.5625,-0.8125,328.125,0.96167,0.00280762,0.00872803,0.274048
0,-0.0625,0,-0.07,0.06,9.56,-0.5625,-0.8125,328.125,0.96167,0.00280762,0.00872803,0.274048
0.0625,0.125,-0.0625,-0.06,0.05,9.58,-0.5625,-0.8125,328.125,0.96167,0.00280762,0.00872803,0.274048
-0.0625,0.0625,0,-0.06,0.05,9.55,-0.5625,-0.8125,328.125,0.96167,0.00280762,0.00872803,0.274048
0,-0.1875,0,-0.07,0.05,9.58,-0.5625,-0.8125,328.125,0.96167,0.00280762,0.00872803,0.274048
0.0625,0.125,0,-0.06,0.05,9.54,-0.5625,-0.8125,328.125,0.96167,0.00280762,0.00872803,0.274048
0.125,-0.0625,0.0625,-0.07,0.03,9.57,-0.5625,-0.8125,328.125,0.96167,0.00280762,0.00872803,0.274048
-0.0625,0.0625,0.0625,-0.07,0.03,9.58,-0.5625,-0.8125,328.125,0.96167,0.00280762,0.00872803,0.274048
0.0625,0,0.0625,-0.07,0.04,9.58,-0.5625,-0.8125,328.125,0.96167,0.00280762,0.00872803,0.274048
0,0.0625,-0.0625,-0.06,0.04,9.58,-0.5625,-0.8125,328.125,0.96167,0.00280762,0.00872803,0.274048
0,0,0.0625,-0.06,0.04,9.56,-0.5625,-0.8125,328.125,0.96167,0.00280762,0.00872803,0.274048
0.0625,0.0625,0.125,-0.07,0.04,9.59,-0.5625,-0.8125,328.125,0.96167,0.00280762,0.00872803,0.274048
0.0625,0,0.0625,-0.06,0.04,9.57,-0.5625,-0.8125,328.125,0.96167,0.00280762,0.00872803,0.274048
0.0625,-0.0625,0.0625,-0.06,0.03,9.6,-0.5625,-0.8125,328.125,0.96167,0.00280762,0.00872803,0.274048
0.0625,0.0625,0.0625,-0.08,0.03,9.58,-0.5625,-0.8125,328.125,0.96167,0.00280762,0.00872803,0.274048
-0.0625,0.125,0,-0.05,0.07,9.56,-0.5625,-0.8125,328.125,0.96167,0.00280762,0.00872803,0.274048
-0.0625,0,0.0625,-0.07,0.03,9.58,-0.5625,-0.8125,328.125,0.96167,0.00280762,0.00872803,0.274048
-0.0625,0.125,-0.0625,-0.05,0.04,9.58,-0.5625,-0.8125,328.125,0.96167,0.00280762,0.00872803,0.274048
-0.0625,0,0.125,-0.05,0.05,9.58,-0.5625,-0.8125,328.125,0.96167,0.00280762,0.00872803,0.274048
-0.0625,0,0.125,-0.06,0.04,9.57,-0.5625,-0.8125,328.125,0.96167,0.00280762,0.00872803,0.274048
0.0625,0.0625,0,-0.06,0.05,9.56,-0.5625,-0.8125,328.125,0.96167,0.00280762,0.00872803,0.274048
-0.0625,0.0625,0,-0.07,0.05,9.58,-0.5625,-0.8125,328.125,0.96167,0.00280762,0.00872803,0.274048
0,-0.125,0.0625,-0.07,0.04,9.58,-0.5625,-0.8125,328.125,0.96167,0.00280762,0.00872803,0.274048
-0.0625,-0.0625,0.125,-0.06,0.05,9.57,-0.5625,-0.8125,328.125,0.96167,0.00280762,0.00872803,0.274048
0.0625,-0.125,0.125,-0.08,0.05,9.58,-0.5625,-0.8125,328.125,0.96167,0.00280762,0.00872803,0.274048
0.0625,0,0.0625,-0.07,0.05,9.57,-0.5625,-0.8125,328.125,0.96167,0.00280762,0.00872803,0.274048
0,-0.0625,0.0625,-0.05,0.05,9.58,-0.5625,-0.8125,328.125,0.96167,0.00280762,0.00872803,0.274048
0.125,-0.0625,0,-0.06,0.02,9.58,-0.5625,-0.8125,328.125,0.96167,0.00280762,0.00872803,0.274048
0,0.0625,0.0625,-0.06,0.04,9.57,-0.5625,-0.8125,328.125,0.96167,0.00280762,0.00872803,0.274048
0,0,0.125,-0.07,0.05,9.57,-0.5625,-0.8125,328.125,0.96167,0.00280762,0.00872803,0.274048
0.0625,0.0625,0.0625,-0.05,0.05,9.56,-0.5625,-0.8125,328.125,0.96167,0.00280762,0.00872803,0.274048
0,-0.125,0.125,-0.05,0.06,9.57,-0.5625,-0.8125,328.125,0.96167,0.00280762,0.00872803,0.274048
0,0.0625,0,-0.06,0.05,9.56,-0.5625,-0.8125,328.125,0.96167,0.00280762,0.00872803,0.274048
0,-0.125,0.1875,-0.08,0.05,9.58,-0.5625,-0.8125,328.125,0.96167,0.00280762,0.00872803,0.274048
0.0625,0.0625,-0.0625,-0.06,0.02,9.59,-0.5625,-0.8125,328.125,0.96167,0.00280762,0.00872803,0.274048
0,0.125,0.0625,-0.06,0.07,9.57,-0.5625,-0.8125,328.125,0.96167,0.00280762,0.00872803,0.274048
0.0625,-0.1875,-0.0625,-0.05,0.04,9.6,-0.5625,-0.8125,328.125,0.96167,0.00280762,0.00872803,0.274048
0,0,0.0625,-0.06,0.03,9.6,-0.5625,-0.8125,328.125,0.96167,0.00280762,0.00872803,0.274048
0,0.125,0.125,-0.06,0.04,9.57,-0.5625,-0.8125,328.125,0.96167,0.00280762,0.00872803,0.274048
0.0625,0,0.125,-0.08,0.04,9.59,-0.5625,-0.8125,328.125,0.96167,0.00280762,0.00872803,0.274048
0.0625,0.0625,0.125,-0.08,0.04,9.55,-0.5625,-0.8125,328.125,0.96167,0.00280762,0.00872803,0.274048
0,-0.0625,0.0625,-0.05,0.05,9.56,-0.5625,-0.8125,328.125,0.96167,0.00280762,0.00872803,0.274048
-0.0625,-0.1875,0.125,-0.06,0.04,9.59,-0.5625,-0.8125,328.125,0.96167,0.00280762,0.00872803,0.274048
0,-0.1875,0.0625,-0.06,0.03,9.57,-0.5625,-0.8125,328.125,0.96167,0.00280762,0.00872803,0.274048
0.0625,-0.125,-0.0625,-0.07,0.04,9.58,-0.5625,-0.8125,328.125,0.96167,0.00280762,0.00872803,0.274048
-0.0625,-0.0625,0,-0.06,0.04,9.56,-0.5625,-0.8125,328.125,0.96167,0.00280762,0.00872803,0.274048
0.0625,-0.0625,0.125,-0.03,0.07,9.56,-0.5625,-0.8125,328.125,0.96167,0.00280762,0.00872803,0.274048
0.0625,0,-0.0625,-0.07,0.04,9.59,-0.5625,-0.8125,328.125,0.96167,0.00280762,0.00872803,0.274048
0.0625,-0.0625,-0.0625,-0.05,0.06,9.59,-0.5625,-0.8125,328.125,0.96167,0.00280762,0.00872803,0.274048
0,-0.0625,0,-0.06,0.05,9.6,-0.5625,-0.8125,328.125,0.96167,0.00280762,0.00872803,0.274048
0,0.0625,0,-0.06,0.02,9.57,-0.5625,-0.8125,328.125,0.96167,0.00280762,0.00872803,0.274048
-0.125,0.25,0.0625,-0.07,0.05,9.56,-0.5625,-0.8125,328.125,0.96167,0.00280762,0.00872803,0.274048
0,0.125,0.0625,-0.07,0.05,9.58,-0.5625,-0.8125,328.125,0.96167,0.00280762,0.00872803,0.274048
0.125,-0.0625,0.0625,-0.07,0.05,9.59,-0.5625,-0.8125,328.125,0.96167,0.00280762,0.00872803,0.274048
0.125,0.0625,-0.125,-0.09,0.04,9.6,-0.5625,-0.8125,328.125,0.96167,0.00280762,0.00872803,0.274048
0,0,-0.0625,-0.07,0.04,9.57,-0.5625,-0.8125,328.125,0.96167,0.00280762,0.00872803,0.274048
0.125,-0.3125,0.0625,-0.06,0.03,9.59,-0.5625,-0.8125,328.125,0.96167,0.00280762,0.00872803,0.274048
0,0,0.0625,-0.07,0.05,9.57,-0.5625,-0.8125,328.125,0.96167,0.00280762,0.00872803,0.274048
0.0625,-0.125,-0.0625,-0.06,0.05,9.56,-0.5625,-0.8125,328.125,0.96167,0.00280762,0.00872803,0.274048
0,-0.125,-0.0625,-0.06,0.04,9.56,-0.5625,-0.8125,328.125,0.96167,0.00280762,0.00872803,0.274048
0,0,-0.125,-0.07,0.04,9.53,-0.5625,-0.8125,328.125,0.96167,0.00280762,0.00872803,0.274048
0.0625,0,-0.0625,-0.07,0.04,9.58,-0.5625,-0.8125,328.125,0.96167,0.00280762,0.00872803,0.274048
0.0625,0.125,0,-0.03,0.03,9.56,-0.5625,-0.8125,328.125,0.96167,0.00280762,0.00872803,0.274048
-0.0625,-0.1875,0.0625,-0.06,0.04,9.6,-0.5625,-0.8125,328.125,0.96167,0.00280762,0.00872803,0.274048
0.0625,0,0,-0.06,0.03,9.6,-0.5625,-0.8125,328.125,0.96167,0.00280762,0.00872803,0.274048
-0.0625,0.125,0.0625,-0.05,0.05,9.58,-0.5625,-0.8125,328.125,0.96167,0.00280762,0.00872803,0.274048
0,-0.0625,0,-0.06,0.04,9.57,-0.5625,-0.8125,328.125,0.96167,0.00280762,0.00872803,0.274048
0,-0.1875,-0.0625,-0.07,0.05,9.56,-0.5625,-0.8125,328.125,0.96167,0.00280762,0.00872803,0.274048
0,0,0,-0.06,0.05,9.57,-0.5625,-0.8125,328.125,0.96167,0.00280762,0.00872803,0.274048
0,-0.0625,-0.125,-0.05,0.03,9.57,-0.5625,-0.8125,328.125,0.96167,0.00280762,0.00872803,0.274048
0.0625,0.1875,0,-0.06,0.03,9.57,-0.5625,-0.8125,328.125,0.96167,0.00280762,0.00872803,0.274048
-0.0625,0,-0.0625,-0.04,0.03,9.57,-0.5625,-0.8125,328.125,0.96167,0.00280762,0.00872803,0.274048
-0.0625,0,0.0625,-0.06,0.03,9.58,-0.5625,-0.8125,328.125,0.96167,0.00280762,0.00872803,0.274048
-0.0625,0,-0.0625,-0.06,0.05,9.6,-0.5625,-0.8125,328.125,0.96167,0.00280762,0.00872803,0.274048
-0.0625,0,0.0625,-0.07,0.04,9.54,-0.5625,-0.8125,328.125,0.96167,0.00280762,0.00872803,0.274048
0,0,0.0625,-0.08,0.04,9.57,-0.5625,-0.8125,328.125,0.96167,0.00280762,0.00872803,0.274048
0.125,0,-0.0625,-0.05,0.05,9.58,-0.5625,-0.8125,328.125,0.96167,0.00280762,0.00872803,0.274048
0,0.0625,0,-0.06,0.04,9.59,-0.5625,-0.8125,328.125,0.96167,0.00280762,0.00872803,0.274048
0.0625,0.0625,0.0625,-0.07,0.04,9.59,-0.5625,-0.8125,328.125,0.96167,0.00280762,0.00872803,0.274048
-0.0625,0.125,-0.125,-0.07,0.06,9.56,-0.5625,-0.8125,328.125,0.96167,0.00280762,0.00872803,0.274048
0.0625,0.0625,-0.125,-0.06,0.04,9.53,-0.5625,-0.8125,328.125,0.96167,0.00280762,0.00872803,0.274048
0,-0.1875,0.0625,-0.06,0.03,9.56,-0.5625,-0.8125,328.125,0.96167,0.00280762,0.00872803,0.274048
0,0,0.0625,-0.05,0.05,9.59,-0.5625,-0.8125,328.125,0.96167,0.00280762,0.00872803,0.274048
0,0.0625,0,-0.07,0.05,9.56,-0.5625,-0.8125,328.125,0.96167,0.00280762,0.00872803,0.274048
0,0.0625,-0.0625,-0.05,0.05,9.57,-0.5625,-0.8125,328.125,0.96167,0.00280762,0.00872803,0.274048
-0.0625,-0.0625,0.0625,-0.07,0.05,9.55,-0.5625,-0.8125,328.125,0.96167,0.00280762,0.00872803,0.274048
0.1875,-0.25,0,-0.06,0.04,9.6,-0.5625,-0.8125,328.125,0.96167,0.00280762,0.00872803,0.274048
0,-0.1875,-0.0625,-0.05,0.04,9.56,-0.5625,-0.8125,328.125,0.96167,0.00280762,0.00872803,0.274048
0.0625,0,0.125,-0.06,0.04,9.57,-0.5625,-0.8125,328.125,0.96167,0.00280762,0.00872803,0.274048
0.0625,0.125,-0.125,-0.06,0.06,9.57,-0.5625,-0.8125,328.125,0.96167,0.00280762,0.00872803,0.274048
0.1875,-0.125,0.125,-0.06,0.04,9.56,-0.5625,-0.8125,328.125,0.96167,0.00280762,0.00872803,0.274048
0.0625,-0.1875,0.0625,-0.08,0.04,9.58,-0.5625,-0.8125,328.125,0.96167,0.00280762,0.00872803,0.274048
-0.125,0.1875,0.0625,-0.06,0.05,9.56,-0.5625,-0.8125,328.125,0.96167,0.00280762,0.00872803,0.274048
0.0625,0,0,-0.07,0.03,9.59,-0.5625,-0.8125,328.125,0.96167,0.00280762,0.00872803,0.274048
0,-0.0625,0,-0.06,0.04,9.55,-0.5625,-0.8125,328.125,0.96167,0.00280762,0.00872803,0.274048
0.125,-0.1875,-0.0625,-0.07,0.04,9.55,-0.5625,-0.8125,328.125,0.96167,0.00280762,0.00872803,0.274048
0.0625,0,-0.0625,-0.06,0.04,9.58,-0.5625,-0.8125,328.125,0.96167,0.00280762,0.00872803,0.274048
0,-0.1875,0,-0.06,0.04,9.56,-0.5625,-0.8125,328.125,0.96167,0.00280762,0.00872803,0.274048
0,0,0,-0.05,0.04,9.57,-0.5625,-0.8125,328.125,0.96167,0.00280762,0.00872803,0.274048
0,-0.0625,-0.125,-0.04,0.04,9.57,-0.5625,-0.8125,328.125,0.96167,0.00280762,0.00872803,0.274048
0,-0.1875,0.1875,-0.06,0.04,9.54,-0.5625,-0.8125,328.125,0.96167,0.00280762,0.00872803,0.274048
0,-0.125,0.0625,-0.07,0.05,9.57,-0.5625,-0.8125,328.125,0.96167,0.00280762,0.00872803,0.274048
0.0625,-0.125,0,-0.06,0.04,9.58,-0.5625,-0.8125,328.125,0.96167,0.00280762,0.00872803,0.274048
0,-0.25,0,-0.06,0.06,9.59,-0.5625,-0.8125,328.125,0.96167,0.00280762,0.00872803,0.274048
-0.0625,-0.0625,-0.0625,-0.07,0.03,9.58,-0.5625,-0.8125,328.125,0.96167,0.00280762,0.00872803,0.274048
0,-0.0625,0.0625,-0.07,0.04,9.54,-0.5625,-0.8125,328.125,0.96167,0.00280762,0.00872803,0.274048
0.0625,-0.125,0,-0.06,0.07,9.61,-0.5625,-0.8125,328.125,0.96167,0.00280762,0.00872803,0.274048
-0.0625,-0.125,0,-0.08,0.04,9.58,-0.5625,-0.8125,328.125,0.96167,0.00280762,0.00872803,0.274048
0,-0.125,0,-0.07,0.05,9.58,-0.5625,-0.8125,328.125,0.96167,0.00280762,0.00872803,0.274048
0,-0.0625,0.0625,-0.06,0.03,9.57,-0.5625,-0.8125,328.125,0.96167,0.00280762,0.00872803,0.274048
-0.0625,0.1875,0,-0.05,0.05,9.54,-0.5625,-0.8125,328.125,0.96167,0.00280762,0.00872803,0.274048
0,0,0.125,-0.08,0.06,9.58,-0.5625,-0.8125,328.125,0.96167,0.00280762,0.00872803,0.274048
0.0625,-0.125,0,-0.05,0.06,9.58,-0.5625,-0.8125,328.125,0.96167,0.00280762,0.00872803,0.274048
0.0625,-0.0625,0,-0.07,0.04,9.6,-0.5625,-0.8125,328.125,0.96167,0.00280762,0.00872803,0.274048
0,-0.125,0,-0.05,0.04,9.58,-0.5625,-0.8125,328.125,0.96167,0.00280762,0.00872803,0.274048
0,-0.125,-0.0625,-0.05,0.03,9.57,-0.5625,-0.8125,328.125,0.96167,0.00280762,0.00872803,0.274048
-0.0625,-0.125,-0.0625,-0.05,0.04,9.57,-0.5625,-0.8125,328.125,0.96167,0.00280762,0.00872803,0.274048
0.0625,0.125,-0.125,-0.07,0.04,9.58,-0.5625,-0.8125,328.125,0.96167,0.00280762,0.00872803,0.274048
0.0625,0.0625,0.0625,-0.08,0.04,9.58,-0.5625,-0.8125,328.125,0.96167,0.00280762,0.00872803,0.274048
0.0625,0.125,-0.125,-0.07,0.05,9.57,-0.5625,-0.8125,328.125,0.96167,0.00280762,0.00872803,0.274048
0.0625,-0.0625,0.0625,-0.06,0.05,9.57,-0.5625,-0.8125,328.125,0.96167,0.00280762,0.00872803,0.274048
0.0625,-0.1875,0,-0.08,0.06,9.59,-0.5625,-0.8125,328.125,0.96167,0.00280762,0.00872803,0.274048
0.0625,-0.0625,0.0625,-0.06,0.04,9.57,-0.5625,-0.8125,328.125,0.96167,0.00280762,0.00872803,0.274048
-0.0625,-0.125,0,-0.05,0.03,9.57,-0.5625,-0.8125,328.125,0.96167,0.00280762,0.00872803,0.274048
0.0625,-0.1875,0.0625,-0.07,0.07,9.59,-0.5625,-0.8125,328.125,0.96167,0.00280762,0.00872803,0.274048
0,0.0625,0,-0.04,0.06,9.53,-0.5625,-0.8125,328.125,0.96167,0.00280762,0.00872803,0.274048
-0.125,-0.25,0.0625,-0.06,0.05,9.58,-0.5625,-0.8125,328.125,0.96167,0.00280762,0.00872803,0.274048
0,-0.125,0,-0.07,0.04,9.57,-0.5625,-0.8125,328.125,0.96167,0.00280762,0.00872803,0.274048
-0.0625,0.0625,0,-0.05,0.05,9.59,-0.5625,-0.8125,328.125,0.96167,0.00280762,0.00872803,0.274048
0.0625,-0.0625,-0.0625,-0.07,0.04,9.59,-0.5625,-0.8125,328.125,0.96167,0.00280762,0.00872803,0.274048
-0.0625,-0.25,0.125,-0.07,0.04,9.56,-0.5625,-0.8125,328.125,0.96167,0.00280762,0.00872803,0.274048
0,-0.0625,0,-0.07,0.05,9.57,-0.5625,-0.8125,328.125,0.96167,0.00280762,0.00872803,0.274048
0.0625,0,-0.0625,-0.05,0.06,9.55,-0.5625,-0.8125,328.125,0.96167,0.00280762,0.00872803,0.274048
0,-0.125,0,-0.06,0.02,9.58,-0.5625,-0.8125,328.125,0.96167,0.00280762,0.00872803,0.274048
0,0.0625,-0.0625,-0.03,0.04,9.58,-0.5625,-0.8125,328.125,0.96167,0.00280762,0.00872803,0.274048
0,0,0,-0.04,0.05,9.56,-0.5625,-0.8125,328.125,0.96167,0.00280762,0.00872803,0.274048
-0.125,-0.125,0,-0.06,0.05,9.56,-0.5625,-0.8125,328.125,0.96167,0.00280762,0.00872803,0.274048
-0.125,-0.25,-0.125,-0.06,0.03,9.55,-0.5625,-0.8125,328.125,0.96167,0.00280762,0.00872803,0.274048
-0.0625,-0.5625,-0.125,-0.03,0.04,9.59,-0.5625,-0.8125,328.125,0.96167,0.00280762,0.00872803,0.274048
-0.25,-0.5625,-0.125,-0.03,0.03,9.58,-0.5625,-0.8125,328.125,0.96167,0.00280762,0.00872803,0.274048
-0.25,-0.5625,0.0625,-0.04,0.04,9.56,-0.5625,-0.8125,328.125,0.96167,0.00280762,0.00872803,0.274048
-0.25,-0.0625,-0.125,-0.05,0.06,9.56,-0.5625,-0.8125,328.125,0.96167,0.00280762,0.00872803,0.274048
0.0625,2.3125,0,-0.1,0.07,9.61,-0.5625,-0.875,328.125,0.96167,0.00280762,0.00891113,0.274048
0.6875,2.625,0.125,-0.12,0.06,9.61,-0.5625,-0.875,328.125,0.96167,0.00280762,0.00915527,0.274048
0.75,2.125,0.0625,-0.15,0.05,9.59,-0.5625,-0.9375,328.125,0.96167,0.00274658,0.00933838,0.274048
0.375,0.375,0.125,-0.17,0.03,9.55,-0.5625,-0.9375,328.125,0.96167,0.00274658,0.00933838,0.274048
0.0625,-1.625,-0.0625,-0.13,0.03,9.57,-0.5625,-0.875,328.125,0.96167,0.00280762,0.00921631,0.274048
-0.4375,-2.875,0.0625,-0.1,0.03,9.59,-0.5625,-0.875,328.125,0.96167,0.00280762,0.00891113,0.274048
-0.8125,-2.875,0.375,-0.11,0.02,9.57,-0.5625,-0.8125,328.125,0.96167,0.00280762,0.00860596,0.274048
-1,-4,0.5,-0.09,0.05,9.57,-0.5625,-0.75,328.125,0.96167,0.00286865,0.00811768,0.274048
-1.0625,-4.875,0,0,0.07,9.52,-0.5625,-0.75,328.125,0.96167,0.00292969,0.00769043,0.274048
-0.625,-2.6875,-0.5,0.13,0.1,9.62,-0.5625,-0.6875,328.125,0.96167,0.00299072,0.00750732,0.274048
-0.3125,-0.125,-0.125,0.25,0.07,9.65,-0.5625,-0.6875,328.125,0.96167,0.00299072,0.00738525,0.274048
-0.375,-0.125,0.8125,0.18,0,9.61,-0.5625,-0.6875,328.125,0.96167,0.00292969,0.00756836,0.274109
-0.125,2.875,1.6875,-0.07,0.06,9.53,-0.5625,-0.75,328.125,0.961609,0.00286865,0.0078125,0.274292
-0.3125,2.375,-0.0625,-0.35,0.18,9.81,-0.5,-0.75,328.125,0.961609,0.00268555,0.00799561,0.274292
-1.4375,6.5625,-2.5,-0.03,0.01,9.57,-0.5,-0.8125,328.125,0.96167,0.00256348,0.00848389,0.274048
-0.4375,11.8125,-3.6875,0.22,-0.12,9.65,-0.5,-0.9375,328.188,0.961731,0.00238037,0.00939941,0.273743
1.375,11.8125,-3.6875,-0.13,0.07,9.64,-0.5625,-1.125,328.25,0.961853,0.00213623,0.0108032,0.273315
2.25,17.1875,-5.4375,0.1,-0.09,9.12,-0.625,-1.3125,328.312,0.961975,0.0020752,0.0127563,0.272827
5.5,23.3125,-4,0.15,-0.27,9.52,-0.6875,-1.5625,328.312,0.962036,0.0022583,0.0148926,0.272461
8.625,22.6875,-0.6875,-0.27,-0.08,9.37,-0.75,-1.75,328.375,0.962036,0.00250244,0.0169678,0.2724
9.9375,19.0625,1.5,-0.61,0.08,9.45,-0.875,-1.9375,328.312,0.961975,0.00299072,0.0187378,0.272522
10.875,19.0625,1.5,-0.88,0.16,9.68,-1,-2.0625,328.312,0.961914,0.00354004,0.0200195,0.272705
10.25,12.5,2.0625,-1.32,0.51,9.5,-1.0625,-2.0625,328.312,0.961853,0.00402832,0.0203247,0.272766
7.0625,-10.6875,0.0625,-1.27,0.52,9.77,-1.0625,-2,328.312,0.961853,0.00457764,0.0195312,0.272766
3.5625,-21.5,-1.8125,-1.07,0.56,9.96,-1.0625,-1.75,328.312,0.961914,0.00494385,0.0177612,0.272644
-1.75,-29.875,-3.9375,-0.82,0.6,9.78,-1,-1.5,328.375,0.962097,0.00512695,0.0151978,0.272278
-6.125,-29.875,-3.9375,-0.68,0.64,9.84,-0.9375,-1.125,328.438,0.96228,0.00524902,0.0120239,0.27179
-8.8125,-36,-5.875,-0.73,0.72,9.63,-0.8125,-0.75,328.5,0.962524,0.00524902,0.00866699,0.270935
-10.1875,-38.75,-19.125,-0.74,0.74,9.61,-0.6875,-0.375,328.688,0.963013,0.00531006,0.00531006,0.269409
-10.3125,-39,-31.25,-0.71,0.66,9.85,-0.625,0,329,0.963745,0.00524902,0.00189209,0.266846
-11.375,-40.6875,-45.3125,-0.75,0.47,9.22,-0.5,0.3125,329.438,0.964722,0.00512695,-0.00170898,0.263123
-12.375,-40.6875,-45.3125,-0.75,0.38,9.19,-0.375,0.75,330.062,0.966064,0.00524902,-0.00543213,0.258118
-10.875,-43.0625,-61,-0.91,0.3,9.16,-0.3125,1.125,330.812,0.967712,0.0055542,-0.00891113,0.251892
-7.3125,-45.0625,-87.6875,-0.38,0.2,8.31,-0.3125,1.5625,331.625,0.969482,0.00640869,-0.0125732,0.24469
-2.125,-58.4375,-95.6875,-0.26,0.26,8.39,-0.4375,2.125,332.562,0.971375,0.00817871,-0.0172119,0.236816
5.8125,-74.4375,-102.312,0.12,0.09,8.93,-0.625,2.8125,333.562,0.973267,0.0111084,-0.0229492,0.228394
15.4375,-74.4375,-102.312,0.12,-0.16,11.16,-0.875,3.625,334.562,0.975037,0.0144043,-0.0293579,0.219543
18.25,-83.75,-106.688,0.56,0,8.63,-1.0625,4.4375,335.625,0.976746,0.0172729,-0.0361328,0.21051
11.875,-99.5625,-106.875,2.16,-0.04,10.49,-1.25,5.375,336.688,0.978271,0.0203857,-0.0440063,0.201599
11.8125,-100.375,-101.938,2.4,0,10.61,-1.4375,6.3125,337.688,0.979553,0.0231934,-0.0519409,0.192993
8.75,-103.875,-95.9375,2.58,0.29,8.06,-1.625,7.3125,338.625,0.980591,0.026001,-0.0602417,0.184875
8.5625,-103.875,-95.9375,2.58,0.29,9.05,-1.9375,8.3125,339.5,0.981323,0.029541,-0.0688477,0.177124
16.6875,-109.562,-91.5,2.73,0.6,14.34,-2.1875,9.25,340.375,0.981995,0.0328369,-0.076416,0.169556
15.9375,-89,-85.9375,2.37,1.04,6.83,-2.375,10.0625,341.25,0.982605,0.0349731,-0.0834961,0.16217
3.375,-97.75,-83.25,3.05,1.28,10.91,-2.5625,11,342.062,0.982971,0.0368042,-0.0913696,0.154968
-1.0625,-102.5,-82.6875,3.01,1.03,9.63,-2.625,11.9375,342.875,0.983215,0.038269,-0.0997314,0.147705
-5.625,-102.5,-82.6875,3.01,1.03,9.63,-2.75,12.875,343.75,0.983459,0.0394897,-0.107727,0.140381
-9.25,-98.6875,-83.875,2.71,0.94,8.38,-2.875,13.6875,344.625,0.983582,0.0405884,-0.115234,0.132751
-8.9375,-85.25,-89.875,2.94,0.73,8.87,-3,14.5,345.5,0.983765,0.0418091,-0.12207,0.124939
-7.8125,-81.9375,-92.3125,3.06,0.64,8.88,-3.25,15.25,346.438,0.983826,0.0431519,-0.128601,0.116882
-5.0625,-82.25,-93.6875,3.12,0.61,8.88,-3.4375,15.9375,347.375,0.983826,0.0447388,-0.135132,0.108765
-3.25,-82.25,-93.6875,3.12,0.61,8.88,-3.75,16.75,348.312,0.983704,0.0464478,-0.141785,0.100525
-1.5625,-84.25,-94.6875,2.96,0.64,8.82,-4,17.5,349.25,0.983398,0.0482178,-0.14856,0.0921631
-1.4375,-87.25,-99.4375,3.44,1.02,8.7,-4.3125,18.25,350.25,0.983032,0.0499878,-0.155396,0.0834961
-2.125,-88.375,-101.188,3.86,1.1,8.67,-4.6875,19.0625,351.25,0.982544,0.0516968,-0.162354,0.074707
-2.375,-88.625,-101.562,4.06,1.15,8.32,-5,19.8125,352.312,0.981934,0.0535278,-0.16925,0.0658569
-1.75,-88.625,-101.562,4.34,1.31,8.62,-5.375,20.5625,353.312,0.98114,0.0553589,-0.176147,0.0571289
-1.125,-88.8125,-99.875,4.06,1.35,8.15,-5.75,21.375,354.25,0.980225,0.0571289,-0.183228,0.0487671
-0.9375,-95.875,-92.375,4.16,1.45,8.6,-6.1875,22.1875,355.188,0.979004,0.05896,-0.190735,0.0406494
-0.5625,-98.9375,-90.1875,3.96,1.6,8.9,-6.5,23.0625,356.125,0.977722,0.0603027,-0.198425,0.0325928
-4.875,-102.062,-91.375,3.43,1.97,8.86,-6.8125,23.9375,357.125,0.976257,0.0610352,-0.206421,0.024292
-12.9375,-102.062,-91.375,3.43,2.15,9.09,-7.0625,24.875,358.125,0.974609,0.0609131,-0.214844,0.015564
-24.5625,-107.375,-94.1875,3.53,2.18,9.16,-7.1875,25.8125,359.25,0.972778,0.0594482,-0.223755,0.00628662
-40.6875,-121.625,-99.375,3.84,1.87,8.22,-7.1875,26.875,0.375,0.970764,0.0567017,-0.233276,-0.00360107
-56.625,-127.75,-104.5,3.83,1.75,8.42,-7.125,28,1.625,0.968445,0.0531616,-0.243225,-0.0140991
-68.125,-132.688,-111.188,3.86,1.67,8.97,-7,29.125,3,0.965759,0.0488281,-0.253418,-0.0254517
-78.875,-132.688,-111.188,3.86,1.53,8.56,-6.875,30.3125,4.4375,0.962769,0.043457,-0.264221,-0.0375977
-92.9375,-141,-117.5,3.7,1.66,8.27,-6.625,31.6875,6,0.959106,0.0369873,-0.27594,-0.0505371
-107,-171,-128.562,4.53,1.78,7.77,-6.375,33.1875,7.6875,0.954773,0.0294189,-0.288818,-0.0643311
-121.25,-186.938,-132.062,4.94,1.85,7.55,-6.0625,34.8125,9.4375,0.949585,0.020813,-0.302734,-0.0786743
-133.938,-200.125,-133.75,5.14,1.81,6.99,-5.75,36.625,11.25,0.943542,0.0114136,-0.317505,-0.0933838
-143,-200.125,-133.75,5.14,1.81,6.99,-5.4375,38.5,13.125,0.936829,0.00158691,-0.332703,-0.108093
-147.75,-207.625,-132.25,6.27,1.29,6.22,-5.1875,40.4375,14.9375,0.929504,-0.00848389,-0.3479,-0.122314
-148.062,-211.562,-117.688,7.56,0.54,5.24,-4.9375,42.375,16.6875,0.921692,-0.0185547,-0.362976,-0.13562
-144.5,-211.062,-102.625,8.01,0.21,4.83,-4.75,44.3125,18.3125,0.913574,-0.0285034,-0.377869,-0.147461
-137.625,-206.688,-85,8.4,-0.16,4.86,-4.4375,46.25,19.6875,0.905396,-0.0383301,-0.392334,-0.157593
-129.188,-206.688,-85,8.4,-0.16,4.86,-4.1875,48.0625,20.9375,0.897461,-0.0478516,-0.405823,-0.166138
-120.375,-195.625,-68.625,8.42,-0.24,4.94,-3.875,49.8125,22,0.889832,-0.0569458,-0.418213,-0.173401
-111.188,-167.312,-45.3125,8.07,-0.58,5.2,-3.5,51.375,23,0.882629,-0.0654907,-0.429443,-0.179565
-102.062,-154.5,-37.625,7.96,-0.56,5.63,-3.1875,52.875,23.8125,0.875793,-0.0734863,-0.439697,-0.184937
-94.5,-143.75,-33.75,7.64,-0.53,5.84,-2.875,54.25,24.625,0.869324,-0.0811157,-0.449097,-0.18988
-90,-143.75,-33.75,7.64,-0.53,6.33,-2.5625,55.5,25.4375,0.862976,-0.088562,-0.457642,-0.194824
-89.375,-133.812,-33.875,7.66,-0.53,6.33,-2.25,56.6875,26.25,0.856689,-0.0960083,-0.465637,-0.200073
-92.875,-120.188,-38.6875,7.3,-0.72,5.01,-1.9375,57.875,27.1875,0.850464,-0.103577,-0.4729,-0.20575
-98,-114.75,-39.4375,9.08,-0.71,5.94,-1.6875,58.9375,28.125,0.844238,-0.111206,-0.479736,-0.211548
-100.312,-110,-34.875,7.98,-0.7,3.71,-1.3125,60,29,0.838135,-0.118896,-0.486084,-0.217041
-100.125,-110,-34.875,7.98,-0.7,3.14,-0.875,61.0625,29.8125,0.832092,-0.126526,-0.492432,-0.221741
-94.875,-110.625,-26.6875,7.9,-0.2,3.36,-0.375,62.25,30.5,0.825623,-0.134521,-0.49939,-0.225525
-92.1875,-133.312,-11.375,8.73,0,3.1,0.25,63.5625,31.1875,0.818665,-0.142944,-0.507019,-0.228638
-91.625,-134.375,-5,9.56,-0.03,3.39,1.0625,64.875,31.75,0.811646,-0.15155,-0.514587,-0.231262
-90.5625,-125.438,-0.4375,10.13,-0.72,2.88,2,66.0625,32.3125,0.804993,-0.159973,-0.521423,-0.233398
-87.125,-125.438,-0.4375,10.13,-0.72,2.88,3,67.125,32.75,0.799011,-0.167908,-0.527405,-0.234985
-80.125,-112.312,5.8125,10.25,-1.05,2.8,4.0625,68.0625,33.0625,0.794006,-0.174988,-0.532166,-0.236023
-69.875,-82.125,12.625,9.51,-0.86,2.96,5.125,68.8125,33.3125,0.789673,-0.181274,-0.536255,-0.236694
-60.6875,-80.1875,11.6875,8.42,-0.55,3.1,6.1875,69.625,33.5625,0.785339,-0.187195,-0.540283,-0.237244
-57.375,-87.1875,5.375,8.42,-0.44,3.42,7.125,70.4375,33.875,0.780518,-0.192993,-0.5448,-0.238098
-57,-87.1875,5.375,8.42,-0.44,3.42,7.6875,71.25,34.375,0.775452,-0.197693,-0.549622,-0.239868
-53.0625,-86.1875,-11.25,9.24,-0.27,4.13,7.125,72,35,0.770447,-0.200073,-0.554199,-0.243347
-43.0625,-82.875,-44.9375,7.98,-0.36,2.78,6.5,72.875,35.75,0.764893,-0.202393,-0.559448,-0.246826
-41.8125,-93.625,-38.875,10.62,0.01,2.6,6.0625,73.8125,36.4375,0.758789,-0.205627,-0.565125,-0.250061
-48.875,-86.9375,-32,10.54,0.23,1.91,5.75,74.6875,37.125,0.753052,-0.20929,-0.570129,-0.253052
-51.8125,-86.9375,-32,10.54,0.23,1.91,5.4375,75.375,37.6875,0.748352,-0.21228,-0.573975,-0.255798
-45.625,-67.625,-27.6875,10.29,0.43,0.79,5.1875,75.9375,38.1875,0.744446,-0.214783,-0.577209,-0.257935
-36.75,-59.0625,-13.5625,10.98,-0.22,0.57,5.125,76.5,38.5625,0.740723,-0.217163,-0.580505,-0.259155
-28.5,-60.75,-3.125,10.58,0.03,0.79,5.4375,77.125,38.6875,0.737305,-0.219604,-0.583923,-0.259216
-19.875,-54.625,1.875,10.51,-0.01,0.88,5.8125,77.625,38.75,0.734436,-0.221619,-0.587036,-0.258606
-11.1875,-54.625,1.875,10.51,-0.01,0.84,6.1875,78,38.75,0.732483,-0.222778,-0.589417,-0.257812
-2.8125,-39.9375,3.1875,10.23,-0.13,0.66,6.5,78.25,38.6875,0.731323,-0.223389,-0.591003,-0.256897
3.25,-21.4375,3.875,9.93,-0.11,0.83,6.75,78.4375,38.5625,0.730469,-0.223633,-0.592407,-0.25592
6.375,-17.1875,4.3125,9.73,0.03,1.32,6.9375,78.625,38.5,0.729797,-0.223755,-0.593567,-0.254944
7.5625,-11.375,4.25,9.84,-0.04,1.4,7.1875,78.75,38.375,0.729492,-0.223755,-0.59436,-0.254089
7.375,-11.375,4.25,9.84,-0.04,1.4,7.3125,78.75,38.3125,0.729431,-0.223633,-0.594727,-0.253418
7.0625,-5.125,3.9375,9.82,-0.09,1.34,7.375,78.75,38.1875,0.729553,-0.223328,-0.59491,-0.252869
7.125,3.6875,1.3125,9.47,-0.1,0.87,7.375,78.75,38.125,0.729919,-0.222839,-0.594849,-0.252441
8.4375,5.8125,-0.3125,9.62,-0.13,1.01,7.1875,78.6875,38.0625,0.730408,-0.222046,-0.594666,-0.252014
10,6.5,-1.5625,9.39,0.01,1.13,7,78.625,37.9375,0.730957,-0.22113,-0.594543,-0.251709
11.25,6.5,-1.5625,9.39,0.01,1.13,6.6875,78.5625,37.9375,0.731506,-0.220154,-0.594299,-0.251465
11.1875,8.25,-3.1875,9.12,0.04,1.58,6.3125,78.5,37.875,0.731934,-0.219116,-0.594177,-0.251465
9.8125,7.3125,-8.5625,8.58,0.11,2.57,5.8125,78.5,37.9375,0.731995,-0.218262,-0.594299,-0.251709
5.8125,2.1875,-14.0625,8.25,0.11,2.61,5.1875,78.5625,38.0625,0.731323,-0.217773,-0.594971,-0.252502
-0.9375,-6.75,-23.0625,5.2,1.05,2.4,4.25,78.8125,38.375,0.729431,-0.217651,-0.59668,-0.253967
-9.1875,-23.625,-23.0625,5.2,1.05,2.4,2.6875,79.375,38.9375,0.72522,-0.218262,-0.600586,-0.256409
-21.5625,-59.25,-39.5625,10.59,1.09,3.29,0.9375,80.4375,39.6875,0.717896,-0.221069,-0.607056,-0.259155
-42.9375,-108.875,-36.375,12.51,-0.67,0.98,-0.75,81.4375,40.4375,0.710938,-0.224487,-0.612793,-0.262085
-50.5625,-101.938,-26.6875,11.02,-0.47,0.66,-2.25,82.0625,41.0625,0.705994,-0.227173,-0.616394,-0.264587
-42.9375,-67.25,-17,10.06,-0.54,-0.47,-3.25,82.5,41.5625,0.702576,-0.229431,-0.618591,-0.266663
-35.9375,-44.6875,-17,10.06,-0.54,-0.47,-3.9375,82.875,41.875,0.699829,-0.231384,-0.620422,-0.267883
-27.4375,-38.1875,-9.6875,10.02,-0.45,-0.66,-0.5,83.1875,42.0625,0.697632,-0.232483,-0.622192,-0.268555
-14.0625,-33,-9.3125,10.14,-0.23,-0.76,-0.625,83.4375,42.125,0.696167,-0.2323,-0.623962,-0.268372
4.25,-24.6875,-5.6875,11.2,0.05,0.1,-0.6875,83.5625,42,0.695435,-0.231323,-0.625549,-0.267395
18.875,-18.4375,1.625,9.95,0.46,0.25,-0.6875,83.6875,41.8125,0.695496,-0.230103,-0.626709,-0.265686
25.875,-9.6875,1.625,9.95,0.46,0.25,-0.6875,83.75,41.5,0.696045,-0.228882,-0.62738,-0.263794
27.875,-2.625,6.5,9.78,1.11,0.46,-0.6875,83.8125,41.1875,0.69635,-0.227661,-0.628174,-0.262024
26.75,-5.75,2.125,9.5,0.97,0.47,-0.6875,83.75,41,0.696899,-0.226318,-0.628601,-0.26062
24,1,1.625,9.84,0.81,1.1,-0.6875,83.75,40.8125,0.697327,-0.22522,-0.629028,-0.259399
20.4375,0.125,2.75,9.81,0.52,0.69,-0.6875,83.75,40.625,0.697693,-0.224426,-0.629333,-0.258423
15.5625,-0.1875,2.75,9.81,0.52,0.69,-0.625,83.8125,40.5,0.697937,-0.223877,-0.629639,-0.257629
12.125,-1.125,2.125,9.82,0.42,0.75,-0.625,83.8125,40.375,0.698181,-0.223328,-0.629761,-0.257019
9.8125,0.625,1.6875,9.88,0.18,0.59,-0.625,83.8125,40.3125,0.698364,-0.222961,-0.629883,-0.256531
8,0.6875,2.5,9.78,0.26,0.92,-0.625,83.75,40.25,0.698669,-0.222656,-0.629822,-0.256042
6.375,2.3125,2.5,9.73,0.28,0.89,-0.625,83.75,40.1875,0.699036,-0.222473,-0.629639,-0.255798
3.6875,3.5625,2.5,9.73,0.28,0.89,-0.5625,83.6875,40.125,0.69928,-0.222473,-0.629395,-0.255676
1.0625,3.9375,2.125,9.69,0.32,0.84,-0.5625,83.6875,40.125,0.699463,-0.222534,-0.62915,-0.255676
-0.75,3.4375,1.25,9.59,0.18,0.66,-0.5625,83.6875,40.125,0.699402,-0.222656,-0.629211,-0.255676
-1.3125,0.75,0.9375,9.61,0.15,0.59,-0.5625,83.75,40.125,0.699097,-0.222778,-0.629517,-0.255615
-0.6875,-2,0.375,9.61,0.13,0.42,-0.5625,83.75,40.125,0.698914,-0.222839,-0.629761,-0.255493
1.0625,-4.25,0.375,9.61,0.13,0.42,-0.5625,83.8125,40.125,0.698608,-0.222778,-0.630249,-0.255188
3.5,-6.375,0.1875,10.06,0.33,0.41,-0.5625,83.875,40.125,0.698364,-0.222595,-0.630798,-0.254639
6.375,-7.25,3.1875,10.06,0.44,0.58,-0.5625,84,39.9375,0.698242,-0.222412,-0.631287,-0.253845
8.375,-6.625,6.3125,10.07,0.34,0.57,-0.5,84.0625,39.8125,0.698181,-0.222351,-0.631775,-0.252869
9,-7.3125,9.3125,9.86,0.28,0.63,-0.375,84.125,39.625,0.698059,-0.222534,-0.632385,-0.251648
9.1875,-9.3125,9.3125,9.86,0.28,0.63,-0.3125,84.25,39.4375,0.697876,-0.222839,-0.632996,-0.250305
9.0625,-11,11.25,9.76,0.26,0.73,-0.1875,84.375,39.25,0.69751,-0.223267,-0.633789,-0.248962
7.875,-12.9375,12,9.67,0.12,0.77,-0.125,84.5625,39.0625,0.697083,-0.223877,-0.634583,-0.24762
5.875,-14.8125,11.6875,9.62,0.24,0.81,0,84.6875,38.9375,0.696472,-0.22467,-0.635376,-0.24646
2.9375,-16.625,11.1875,9.69,0.25,0.8,0.0625,84.875,38.8125,0.69574,-0.225647,-0.63623,-0.245483
-0.25,-18.125,11.1875,9.69,0.25,0.8,0.1875,85.0625,38.8125,0.694885,-0.226807,-0.637085,-0.244629
-3,-19.0625,10.75,9.84,0.23,0.69,0.25,85.25,38.75,0.693848,-0.228088,-0.638,-0.243958
-5.4375,-19.5625,12.625,10.01,0.11,0.22,0.375,85.4375,38.625,0.692932,-0.229553,-0.638794,-0.243164
-6.4375,-19.4375,14.625,10,-0.04,0.2,0.5625,85.625,38.5625,0.692017,-0.231079,-0.639526,-0.242249
-6.1875,-19.625,17.125,9.9,-0.07,0.14,0.6875,85.8125,38.4375,0.691162,-0.232788,-0.640259,-0.24115
-5.4375,-20.625,17.125,9.9,-0.07,0.14,0.875,85.9375,38.3125,0.690247,-0.234497,-0.641113,-0.239868
-4.375,-22.1875,18.3125,9.69,0.1,0.44,1.0625,86.125,38.125,0.689209,-0.236206,-0.64209,-0.238586
-4.4375,-24.0625,18.0625,9.67,0.08,0.41,1.25,86.3125,38.0625,0.687988,-0.237976,-0.643188,-0.237366
-5.4375,-26,18.0625,9.81,0,0.51,1.375,86.5625,37.9375,0.686523,-0.239868,-0.64447,-0.236206
-7.0625,-28.9375,18.5,9.72,0.02,0.22,1.5625,86.75,37.875,0.684875,-0.241943,-0.645813,-0.235107
-9.6875,-32.125,18.5,9.72,0.02,0.22,1.75,86.9375,37.8125,0.682983,-0.244202,-0.6474,-0.234009
-11,-35.125,18.375,9.92,0,0.07,1.875,87.125,37.6875,0.681152,-0.246521,-0.648865,-0.232849
-10.4375,-36.1875,16.0625,9.28,-0.42,-0.43,2.0625,87.25,37.625,0.67926,-0.248596,-0.650513,-0.231567
-8.0625,-37.25,12.375,9.35,-0.68,-0.91,2.1875,87.375,37.5,0.677429,-0.250244,-0.652222,-0.230347
-4.5625,-35.8125,6.75,9.41,-0.64,-0.82,2.25,87.4375,37.4375,0.675781,-0.251282,-0.65387,-0.22937
-1.125,-31.375,6.75,9.41,-0.64,-0.82,2.25,87.5,37.4375,0.674683,-0.251709,-0.65509,-0.22876
0.8125,-21.25,1.4375,9.58,-0.47,-0.73,2.25,87.5625,37.4375,0.674133,-0.25177,-0.655579,-0.22876
0.5,-8.375,-3.4375,10,-0.1,-0.58,2.1875,87.625,37.5,0.674255,-0.251465,-0.655518,-0.229004
-0.1875,3.0625,-2.6875,9.98,-0.08,-0.41,2.1875,87.5625,37.5,0.674744,-0.251099,-0.655029,-0.229309
0.8125,9.125,-1,9.94,-0.12,-0.22,2.1875,87.5625,37.5,0.675293,-0.250732,-0.654541,-0.229431
2.125,9.5625,-1,9.94,-0.12,-0.22,2.1875,87.5625,37.5,0.67572,-0.250427,-0.654236,-0.229431
2.875,6.625,0.5625,9.72,-0.18,0.04,2.1875,87.5,37.4375,0.675964,-0.250305,-0.654114,-0.229248
2.625,2.4375,1.1875,9.58,-0.24,0.12,2.1875,87.5,37.4375,0.675903,-0.250305,-0.654236,-0.229065
1.5625,-1.6875,0.1875,9.55,-0.22,0.21,2.1875,87.5,37.4375,0.675659,-0.250427,-0.65448,-0.229004
-0.5625,-4.6875,-1.3125,9.62,-0.28,-0.05,2.1875,87.5625,37.4375,0.675171,-0.250671,-0.654846,-0.229065
-3.25,-6.875,-1.3125,9.62,-0.28,-0.05,2.125,87.5625,37.4375,0.6745,-0.251038,-0.655334,-0.229309
-5,-9.5625,-2.4375,9.67,-0.22,-0.24,2.125,87.625,37.5,0.673462,-0.251343,-0.656189,-0.229492
-5.0625,-12.125,-3.125,9.84,-0.18,-0.44,2.0625,87.75,37.6875,0.672546,-0.251709,-0.656982,-0.229614
-4.125,-14.5,-2.75,9.84,-0.19,-0.55,2.0625,87.8125,37.75,0.67157,-0.252014,-0.657837,-0.229614
-2.875,-15.375,-2.25,9.9,-0.2,-0.62,2,87.875,37.75,0.670654,-0.252258,-0.658691,-0.229553
-1.75,-14.6875,-2.25,9.9,-0.2,-0.62,2,87.9375,37.75,0.669861,-0.252502,-0.659485,-0.22937
-0.75,-13.3125,-1.75,9.89,-0.21,-0.58,2,87.9375,37.8125,0.66925,-0.252625,-0.660095,-0.229248
0.0625,-10.125,-0.875,9.87,-0.15,-0.53,177.938,87.9375,37.8125,0.668884,-0.252686,-0.660461,-0.229126
0.5,-6.5,-0.4375,9.84,-0.14,-0.51,177.938,87.9375,37.8125,0.668762,-0.252747,-0.660645,-0.229065
0.5625,-2.6875,-0.125,9.84,-0.2,-0.45,177.938,87.9375,37.8125,0.668396,-0.252747,-0.66095,-0.229065
0.3125,0.0625,-0.125,9.84,-0.2,-0.45,177.938,87.9375,37.8125,0.668274,-0.252686,-0.661072,-0.229126
0.375,1.625,0,9.74,-0.19,-0.33,178,88,37.8125,0.668213,-0.252686,-0.661194,-0.229187
0.1875,1.375,-0.375,9.73,-0.19,-0.22,178,88,37.8125,0.668091,-0.252686,-0.661255,-0.229187
-0.375,0.4375,-0.625,9.67,-0.2,-0.27,178,88,37.875,0.667908,-0.252686,-0.661438,-0.229309
-1.25,-1.25,-1,9.73,-0.17,-0.31,178,88,37.875,0.667542,-0.252808,-0.661682,-0.229431
-2,-3.3125,-1,9.73,-0.17,-0.31,178.062,88,37.875,0.667053,-0.252991,-0.662109,-0.229492
-2.125,-5.5,-0.8125,9.66,-0.15,-0.37,178.062,88,37.9375,0.666382,-0.253174,-0.662659,-0.229492
-2.0625,-7.625,-1.1875,9.82,-0.19,-0.51,178.062,88,38,0.665649,-0.253357,-0.663391,-0.229492
-1.6875,-9.1875,-0.75,9.82,-0.17,-0.59,178.125,88,38.0625,0.664795,-0.253601,-0.664185,-0.229309
-0.75,-10.4375,-0.375,9.76,-0.18,-0.56,178.125,87.9375,38.0625,0.66394,-0.253784,-0.6651,-0.229065
0.75,-11.6875,-0.375,9.76,-0.18,-0.56,178.125,87.875,38,0.663025,-0.253967,-0.666077,-0.228638
1.9375,-12.5625,-0.25,9.72,-0.21,-0.61,178.125,87.8125,38,0.662109,-0.254089,-0.667053,-0.228149
2.9375,-13.3125,-0.5,9.73,-0.15,-0.47,178.125,87.75,37.9375,0.661255,-0.25415,-0.66803,-0.227661
3.5625,-14,-0.6875,9.73,-0.17,-0.39,178.125,87.6875,37.9375,0.6604,-0.25415,-0.669067,-0.227234
3.375,-15,-0.875,9.76,-0.18,-0.33,178.188,87.5625,37.9375,0.659485,-0.254272,-0.670044,-0.226807
2.4375,-16.125,-0.875,9.76,-0.18,-0.33,178.188,87.5625,37.9375,0.658447,-0.254578,-0.671082,-0.226501
0.4375,-17.75,-1,9.8,-0.13,-0.38,178.188,87.5,37.9375,0.657227,-0.255005,-0.67218,-0.226196
-1.5625,-19.9375,-0.25,9.77,-0.11,-0.53,178.188,87.1875,38,0.655823,-0.255554,-0.673462,-0.225891
-2.75,-23,-0.125,9.73,-0.17,-0.66,178.188,87,38,0.654236,-0.256226,-0.674866,-0.225525
-3.4375,-25.625,0.125,9.66,-0.23,-0.88,178.188,86.75,38.0625,0.652588,-0.256958,-0.676331,-0.225098
-3.5,-27.75,0.125,9.66,-0.23,-0.88,178.188,86.5,38.0625,0.650818,-0.25769,-0.677917,-0.224609
-2.6875,-30.25,-0.25,9.62,-0.21,-0.9,178.188,86.25,38.0625,0.648926,-0.258301,-0.679688,-0.22406
-1.625,-32.1875,-2.25,9.82,-0.16,-1.04,178.25,85.9375,38.0625,0.646851,-0.25885,-0.681641,-0.223511
-0.9375,-34.25,-2.4375,9.8,-0.14,-1.14,178.25,85.6875,38.125,0.644897,-0.259399,-0.683472,-0.222961
-0.625,-32.75,-2.3125,9.91,-0.16,-1.1,178.312,85.4375,38.125,0.643127,-0.259888,-0.68512,-0.222473
-0.9375,-29.8125,-2.3125,9.91,-0.16,-1.1,178.312,85.4375,38.125,0.641479,-0.260315,-0.686584,-0.222046
-1.1875,-27.3125,-1.8125,9.72,-0.15,-1.14,178.312,85.1875,38.1875,0.639954,-0.260803,-0.687988,-0.22168
-1.375,-25.3125,-0.8125,9.94,0.2,-1.77,178.312,84.75,38.1875,0.63855,-0.26123,-0.68927,-0.221252
-1.25,-23.5,6.25,9.5,0.37,-1.42,178.25,84.5625,38.125,0.637634,-0.261902,-0.690063,-0.22052
0.75,-17.5,7.6875,9.47,-0.3,-1.51,178.188,84.375,38,0.637024,-0.262512,-0.690674,-0.219666
1.625,-13.5,7.6875,9.47,-0.3,-1.51,178.125,84.3125,38,0.636597,-0.262878,-0.691162,-0.218994
2.6875,-10.25,5.1875,9.59,-0.34,-1.3,178.125,84.1875,37.9375,0.636292,-0.263,-0.691528,-0.218506
3,-7.5,1.75,9.65,-0.17,-1.34,178.062,84.1875,37.8125,0.636047,-0.263062,-0.691833,-0.21814
2.8125,-5,1,9.72,-0.13,-1.21,178.062,84.125,37.8125,0.635986,-0.263,-0.692017,-0.217834
3.1875,-2.9375,0.625,9.68,-0.21,-1.22,178.062,84.125,37.75,0.635986,-0.262939,-0.692139,-0.21759
2.75,-1.625,0.625,9.68,-0.21,-1.22,178.062,84.125,37.75,0.635864,-0.262817,-0.692322,-0.217529
1.375,0.1875,0.25,9.67,-0.25,-1.24,178.062,84.125,37.75,0.635864,-0.262756,-0.692383,-0.217529
0.75,1.625,-1.25,9.73,-0.22,-1.24,178.125,84.125,37.75,0.635864,-0.262634,-0.692322,-0.217651
0.375,2.875,-1.75,9.57,-0.22,-1.3,178.125,84.125,37.8125,0.635864,-0.262451,-0.692322,-0.217834
-0.125,3.375,-3.125,9.63,-0.23,-1.38,178.188,84.1875,37.8125,0.635864,-0.262207,-0.692322,-0.218079
-0.375,5,-3.125,9.63,-0.23,-1.38,178.188,84.25,37.8125,0.636108,-0.261841,-0.6922,-0.218506
-0.375,8.1875,-4.375,9.85,-0.14,-1.32,178.25,84.3125,37.875,0.636475,-0.261414,-0.691833,-0.218933
-0.5,11.625,-2,9.9,-0.13,-1.28,178.312,84.5,38,0.637451,-0.261047,-0.690918,-0.219543
-1.25,17.4375,-0.4375,9.66,-0.2,-1.2,178.312,84.6875,38,0.638672,-0.260742,-0.689697,-0.220154
-2.25,22.0625,-0.3125,9.55,-0.24,-1.03,178.312,84.875,38.0625,0.639954,-0.260437,-0.688354,-0.220764
-2.1875,23.4375,-0.3125,9.55,-0.24,-1.03,178.312,84.875,38.0625,0.639954,-0.26001,-0.687195,-0.221497
-2.125,22.1875,-1.375,9.7,-0.21,-0.85,178.312,85.125,38.0625,0.641174,-0.259644,-0.686157,-0.222168
-2.125,18.75,-2.25,9.88,-0.07,-0.94,178.375,85.4375,38.1875,0.642883,-0.259399,-0.685425,-0.222717
-2.0625,13.8125,-1.125,9.95,-0.09,-1.09,178.375,85.5,38.1875,0.643372,-0.259216,-0.684875,-0.223083
-1.6875,9.4375,0.4375,9.8,-0.14,-1.18,178.375,85.5625,38.1875,0.643738,-0.259094,-0.68457,-0.223206
-0.125,6.1875,0.4375,9.8,-0.14,-1.18,178.375,85.5625,38.1875,0.643921,-0.259033,-0.684509,-0.223083
1.875,4.75,1.5625,9.68,-0.14,-1.09,178.375,85.5625,38.1875,0.644043,-0.25885,-0.684448,-0.2229
3.625,3.6875,1.375,9.7,-0.16,-0.77,178.312,85.625,38.125,0.644226,-0.258667,-0.684448,-0.222656
3.75,2.5,1,9.71,0,-0.48,178.312,85.625,38.0625,0.644348,-0.258545,-0.684448,-0.222473
2.8125,0.875,0.8125,9.88,-0.09,-0.52,178.312,85.5625,38.0625,0.644287,-0.258606,-0.684509,-0.222412
0.25,-1.4375,0.8125,9.88,-0.09,-0.52,178.312,85.5625,38.0625,0.644043,-0.258972,-0.684631,-0.222412
-2.9375,-3.75,1.4375,9.83,-0.12,-0.7,178.312,85.5,38.0625,0.643677,-0.25946,-0.684753,-0.222473
-5.3125,-5.5625,2,9.59,-0.28,-1.31,178.25,85.4375,38.125,0.643188,-0.26001,-0.684998,-0.222534
-5.3125,-6.4375,1.25,9.68,-0.27,-1.3,178.25,85.375,38.1875,0.642761,-0.260376,-0.685242,-0.222534
-3.4375,-6.5625,0.25,9.75,-0.2,-1.24,178.25,85.3125,38.1875,0.642334,-0.260559,-0.685547,-0.222412
-1,-6.4375,0.25,9.75,-0.2,-1.24,178.25,85.3125,38.1875,0.642029,-0.26062,-0.685913,-0.222229
0.75,-6.125,0,9.78,-0.14,-1.13,178.25,85.25,38.125,0.641663,-0.260681,-0.686279,-0.221985
1.625,-6.5,0.5,9.75,-0.14,-0.89,178.25,85.125,38.125,0.641296,-0.260742,-0.686707,-0.221741
1.3125,-7.375,0.75,9.73,-0.15,-0.94,178.25,85.0625,38.125,0.640747,-0.260925,-0.687195,-0.221558
0.375,-8.3125,0.9375,9.83,-0.16,-1.15,178.25,84.9375,38.125,0.640137,-0.261169,-0.687744,-0.221375
-0.625,-9,0.9375,9.83,-0.16,-1.15,178.25,84.9375,38.125,0.639465,-0.261475,-0.688354,-0.22113
-0.8125,-9.625,1.0625,9.78,-0.18,-1.21,178.25,84.8125,38.125,0.638794,-0.261719,-0.688965,-0.220825
-0.5625,-9.0625,1.6875,9.7,-0.22,-1.26,178.25,84.625,38.0625,0.638367,-0.261963,-0.689392,-0.220581
0.375,-8.75,1.1875,9.68,-0.22,-1.21,178.188,84.5625,38.0625,0.637878,-0.262146,-0.689819,-0.220215
1.3125,-8.375,0.5,9.73,-0.22,-1.18,178.188,84.5,38.0625,0.637451,-0.262207,-0.690308,-0.21991
2.0625,-8.125,0.5,9.73,-0.22,-1.18,178.188,84.5,38.0625,0.637451,-0.262207,-0.690857,-0.219604
2.375,-8.25,0.125,9.83,-0.19,-1.14,178.188,84.375,38,0.636963,-0.262207,-0.691406,-0.21936
2.0625,-7.3125,0.8125,9.82,-0.15,-1.24,178.25,84.25,38,0.636108,-0.262268,-0.691772,-0.219116
1.125,-5.5,1.625,9.79,-0.19,-1.27,178.188,84.1875,38,0.635803,-0.262451,-0.692078,-0.218933
0.3125,-3.625,2.25,9.66,-0.2,-1.28,178.188,84.1875,37.9375,0.63562,-0.262634,-0.6922,-0.218811
0.0625,-1.8125,2.25,9.66,-0.2,-1.28,178.188,84.1875,37.9375,0.635498,-0.262756,-0.692322,-0.218689
-0.0625,0,1.9375,9.69,-0.25,-1.26,178.188,84.125,37.9375,0.635437,-0.262817,-0.692322,-0.218628
0.125,1,0.8125,9.72,-0.23,-1.2,178.188,84.125,37.9375,0.635437,-0.262878,-0.692322,-0.218628
0.375,1.3125,0.5,9.74,-0.2,-1.14,178.188,84.125,37.9375,0.635437,-0.262817,-0.692322,-0.218567
0.625,1.375,0.5,9.76,-0.21,-1.14,178.188,84.125,37.9375,0.635437,-0.262756,-0.692322,-0.218628
0.375,1.25,0.25,9.76,-0.2,-1.21,178.188,84.125,37.9375,0.635437,-0.262756,-0.692383,-0.218628
-0.1875,0.6875,0.5,9.77,-0.2,-1.24,178.188,84.125,37.9375,0.635376,-0.262756,-0.692444,-0.218689
-0.25,0.6875,0.625,9.73,-0.22,-1.32,178.188,84.125,37.9375,0.635315,-0.262756,-0.692444,-0.218628
-0.5,1.5,0.5625,9.75,-0.23,-1.33,178.188,84.125,37.9375,0.635376,-0.262756,-0.692444,-0.218689
-0.0625,3.3125,0.4375,9.73,-0.24,-1.27,178.188,84.125,37.9375,0.635498,-0.262634,-0.692322,-0.21875
0.75,4.625,0.4375,9.73,-0.24,-1.27,178.188,84.125,37.9375,0.635742,-0.262451,-0.692139,-0.218811
1.4375,6.1875,0,9.77,-0.2,-1.24,178.188,84.1875,37.9375,0.636108,-0.262207,-0.691895,-0.218872
1.875,7.75,0,9.79,-0.21,-1.21,178.188,84.3125,37.9375,0.636597,-0.261963,-0.691528,-0.218933
2.125,9.625,-0.375,9.83,-0.22,-1.2,178.188,84.4375,37.9375,0.637207,-0.261597,-0.69104,-0.219055
2,12.625,-0.1875,9.84,-0.18,-1.21,178.188,84.5625,37.9375,0.638062,-0.26123,-0.690308,-0.219299
1.8125,16.4375,-0.1875,9.84,-0.18,-1.21,178.188,84.5625,37.9375,0.638062,-0.26123,-0.690308,-0.219727
1.375,20.875,0.0625,9.89,-0.15,-1.18,178.25,84.6875,37.9375,0.63916,-0.260742,-0.689331,-0.220215
1.1875,25.5,1.375,9.91,-0.17,-1.12,178.25,85.1875,37.9375,0.64209,-0.259705,-0.686707,-0.220703
1.1875,29.875,1.375,9.86,-0.17,-1.09,178.188,85.4375,37.875,0.643921,-0.259094,-0.684998,-0.221252
1.5,33.75,2.3125,9.73,-0.23,-0.93,178.188,85.75,37.875,0.645996,-0.258484,-0.683167,-0.221741
2,37,2.875,9.73,-0.23,-0.93,178.188,85.75,37.875,0.645996,-0.258484,-0.681091,-0.22229
2.75,39.5,2.625,9.68,-0.23,-0.83,178.188,86.0625,37.8125,0.648254,-0.257751,-0.678894,-0.2229
3.375,40.9375,2.0625,9.7,-0.28,-0.64,178.125,86.6875,37.75,0.653198,-0.256042,-0.676636,-0.223511
3.875,41.5,1.3125,9.69,-0.29,-0.43,178.125,87.0625,37.6875,0.65564,-0.255005,-0.674438,-0.224182
3.9375,41.6875,0.375,9.7,-0.27,-0.35,178.125,87.3125,37.6875,0.658081,-0.254028,-0.67218,-0.224854
3.75,41.25,-0.4375,9.7,-0.27,-0.35,178.125,87.3125,37.6875,0.6604,-0.252991,-0.670044,-0.225586
3.1875,40.125,-1.125,9.69,-0.23,-0.25,178.125,87.625,37.6875,0.662598,-0.252075,-0.667969,-0.226318
2.5,38.0625,-1.5625,9.67,-0.19,0,178.188,88,37.6875,0.664551,-0.25116,-0.666138,-0.227112
1.5625,34.75,-1.875,9.63,-0.2,0.07,178.188,88.125,37.75,0.666199,-0.250488,-0.664429,-0.227844
0.5625,30.4375,-2.125,9.62,-0.22,0.11,178.188,88.1875,37.75,0.667603,-0.249878,-0.663086,-0.228516
-0.375,25.0625,-2.5,9.62,-0.22,0.11,178.188,88.1875,37.75,0.668518,-0.249451,-0.662048,-0.229126
-1.125,18.5,-2.5,9.62,-0.2,0.12,178.25,88.25,37.8125,0.669067,-0.249146,-0.661438,-0.229614
-1.6875,11.25,-2.375,9.8,-0.17,0,1.625,88.3125,37.875,0.66925,-0.249084,-0.661255,-0.229858
-1.625,3.8125,-1.875,9.85,-0.15,-0.05,1.625,88.3125,37.875,0.669006,-0.249207,-0.661438,-0.229919
-1.4375,-3.375,-0.5,9.95,-0.07,-0.15,178.312,88.25,37.875,0.668457,-0.249512,-0.661987,-0.229675
-0.8125,-10,1.125,9.95,-0.07,-0.15,178.312,88.25,37.875,0.668457,-0.249512,-0.661987,-0.229675
-0.25,-15.3125,3.125,9.86,-0.13,-0.16,178.25,88.25,37.875,0.667603,-0.249939,-0.662781,-0.228516
0.3125,-19.8125,5.0625,9.71,-0.27,-0.24,178.188,88.0625,37.75,0.665344,-0.251343,-0.665039,-0.227722
0.5625,-23.375,5.75,9.49,-0.4,-0.33,178.125,87.9375,37.6875,0.664001,-0.252075,-0.666443,-0.226807
0.8125,-26.125,4.8125,9.53,-0.4,-0.34,178.062,87.75,37.625,0.662476,-0.252747,-0.667969,-0.226013
0.6875,-28.1875,3.125,9.53,-0.4,-0.34,178.062,87.75,37.625,0.662476,-0.252747,-0.669556,-0.225342
0.4375,-28.75,0.75,9.65,-0.32,-0.42,178.062,87.5625,37.625,0.660889,-0.253357,-0.671143,-0.224792
-0.25,-28.0625,-1.0625,10.1,-0.11,-0.64,178.125,87.25,37.625,0.657715,-0.254272,-0.672607,-0.224365
-0.8125,-26.4375,-1.75,10.07,-0.11,-0.72,178.125,87.125,37.6875,0.656311,-0.254761,-0.673889,-0.22406
-1.6875,-23.25,-0.8125,9.97,-0.19,-0.79,178.125,86.9375,37.6875,0.655212,-0.25531,-0.674927,-0.223694
-2.125,-19.4375,1,9.97,-0.19,-0.79,178.125,86.9375,37.6875,0.655212,-0.255859,-0.675659,-0.223328
-2.125,-15.25,2.4375,9.85,-0.26,-0.84,178.062,86.8125,37.6875,0.654297,-0.256287,-0.676147,-0.223083
-1.6875,-10.875,2.5,9.57,-0.36,-0.89,178.062,86.625,37.625,0.65332,-0.256592,-0.676514,-0.2229
-0.9375,-7,1.3125,9.65,-0.33,-0.84,178.062,86.625,37.625,0.653076,-0.256592,-0.676697,-0.222839
-0.0625,-3.4375,-0.625,9.87,-0.22,-0.71,178.062,86.625,37.6875,0.653076,-0.256409,-0.676819,-0.222961
0.875,-0.4375,-2.5625,9.87,-0.22,-0.71,178.062,86.625,37.6875,0.653076,-0.256104,-0.676758,-0.223083
1.125,2.25,-3.125,9.95,-0.17,-0.71,178.125,86.6875,37.6875,0.653198,-0.255798,-0.676636,-0.223328
0.875,5.375,-2.875,10.02,-0.12,-0.68,178.125,86.8125,37.75,0.653809,-0.255493,-0.676208,-0.223572
0.625,8.3125,-1.75,9.85,-0.19,-0.67,178.125,86.875,37.75,0.654419,-0.25531,-0.675598,-0.223816
0.5,10.75,-0.1875,9.76,-0.22,-0.66,178.125,87,37.75,0.655151,-0.255127,-0.674927,-0.223999
0.375,12.625,1.0625,9.76,-0.22,-0.66,178.125,87,37.75,0.655151,-0.255127,-0.674927,-0.223999
0.375,14,1.5625,9.68,-0.27,-0.62,178.125,87.0625,37.6875,0.655884,-0.254944,-0.674194,-0.224243
0.6875,14.875,1.1875,9.66,-0.3,-0.49,178.125,87.25,37.6875,0.657532,-0.254333,-0.672668,-0.22467
1.1875,15.3125,0.4375,9.73,-0.27,-0.41,178.125,87.375,37.6875,0.658386,-0.253967,-0.671875,-0.224976
1.3125,15.75,-0.625,9.79,-0.24,-0.39,178.125,87.5,37.6875,0.659241,-0.25354,-0.671082,-0.225342
1.1875,15.5625,-1.375,9.79,-0.24,-0.39,178.125,87.5,37.6875,0.659241,-0.25354,-0.671082,-0.225647
1.125,15,-1.6875,9.8,-0.22,-0.35,178.188,87.625,37.75,0.660034,-0.253052,-0.670349,-0.226013
0.75,14,-1.4375,9.82,-0.18,-0.31,178.188,87.75,37.75,0.661438,-0.25238,-0.669006,-0.226379
0.4375,12.5,-1,9.79,-0.18,-0.3,178.188,87.8125,37.75,0.662048,-0.252136,-0.668396,-0.226624
0,10.8125,-0.375,9.74,-0.23,-0.29,178.188,87.875,37.75,0.662537,-0.252014,-0.667969,-0.226807
-0.3125,8.625,0.125,9.74,-0.23,-0.29,178.188,87.875,37.75,0.662537,-0.252014,-0.667603,-0.226929
-0.25,6.25,0.1875,9.7,-0.24,-0.28,178.188,87.9375,37.75,0.662842,-0.251831,-0.667419,-0.22699
-0.1875,3.75,0.25,9.73,-0.24,-0.27,178.188,87.9375,37.75,0.663086,-0.25177,-0.667358,-0.227051
0,1.3125,0.0625,9.75,-0.23,-0.29,178.188,87.9375,37.75,0.663025,-0.25177,-0.667419,-0.227051
0.0625,-0.9375,-0.125,9.78,-0.2,-0.29,178.188,87.9375,37.75,0.662842,-0.251831,-0.667664,-0.226929
0.25,-3.25,-0.125,9.78,-0.2,-0.29,178.188,87.9375,37.75,0.662842,-0.251831,-0.667969,-0.226868
0.0625,-5.0625,0,9.79,-0.21,-0.29,178.188,87.875,37.75,0.662537,-0.251953,-0.668335,-0.226746
0.0625,-6.6875,0.125,9.81,-0.21,-0.39,178.188,87.8125,37.75,0.661621,-0.252197,-0.668823,-0.226562
-0.3125,-7.875,0.4375,9.78,-0.21,-0.41,178.188,87.75,37.75,0.661133,-0.25238,-0.669312,-0.226318
-0.4375,-8.375,0.6875,9.75,-0.24,-0.43,178.188,87.6875,37.75,0.660583,-0.252625,-0.6698,-0.226135
-0.625,-9.0625,0.6875,9.75,-0.24,-0.43,178.188,87.6875,37.75,0.660583,-0.252625,-0.6698,-0.226135
-0.5,-8.5,0.5,9.76,-0.25,-0.45,178.188,87.625,37.75,0.660095,-0.252808,-0.670288,-0.225952
-0.5,-8.5,0.5,9.77,-0.29,-0.48,178.188,87.5,37.75,0.659058,-0.253113,-0.671326,-0.225586
-0.3125,-7.875,0.125,9.79,-0.25,-0.51,178.188,87.5,37.75,0.65863,-0.253235,-0.671753,-0.225464
-0.125,-7.0625,0.125,9.81,-0.23,-0.52,178.188,87.4375,37.75,0.658325,-0.253357,-0.672058,-0.225342
-0.125,-4.5625,-0.0625,9.81,-0.23,-0.52,178.188,87.4375,37.75,0.658325,-0.253357,-0.672058,-0.225342
0,-3.25,-0.0625,9.81,-0.22,-0.52,178.188,87.4375,37.75,0.658081,-0.253418,-0.672302,-0.225281
-0.0625,-1.875,0,9.81,-0.21,-0.55,178.25,87.375,37.75,0.657837,-0.253479,-0.672546,-0.22522
0,-0.625,0.1875,9.79,-0.24,-0.54,178.25,87.375,37.75,0.657776,-0.253479,-0.672546,-0.22522
0.0625,0.625,0.125,9.79,-0.27,-0.54,178.25,87.375,37.75,0.657837,-0.253418,-0.672546,-0.225281
0.0625,1.8125,0,9.79,-0.27,-0.54,178.25,87.375,37.75,0.657837,-0.253418,-0.672546,-0.225281
0.0625,3.125,-0.0625,9.79,-0.23,-0.53,178.25,87.4375,37.75,0.657959,-0.253357,-0.672424,-0.225342
0.25,3.9375,-0.1875,9.77,-0.23,-0.48,178.25,87.4375,37.8125,0.658325,-0.253235,-0.672058,-0.225525
0.5,4.5625,-0.3125,9.76,-0.22,-0.46,178.25,87.5,37.8125,0.658569,-0.253113,-0.671814,-0.225647
0.5,5.25,-0.375,9.8,-0.22,-0.46,178.25,87.5,37.8125,0.658813,-0.253052,-0.671509,-0.225708
0.25,5.375,-0.5,9.8,-0.22,-0.46,178.25,87.5,37.8125,0.658813,-0.253052,-0.671509,-0.225708
0.375,5.1875,-0.25,9.81,-0.22,-0.45,178.25,87.5625,37.8125,0.659058,-0.25293,-0.671265,-0.22583
0.1875,5,-0.125,9.8,-0.23,-0.42,178.25,87.625,37.8125,0.659546,-0.252747,-0.670837,-0.226074
0.1875,4.625,-0.125,9.76,-0.24,-0.39,178.25,87.625,37.8125,0.65979,-0.252686,-0.670593,-0.226135
0.25,4.25,0.0625,9.75,-0.24,-0.35,178.25,87.6875,37.8125,0.659973,-0.252625,-0.67041,-0.226257
0.25,3.5625,-0.125,9.75,-0.24,-0.35,178.25,87.6875,37.8125,0.659973,-0.252625,-0.67041,-0.226257
0.0625,2.625,-0.1875,9.76,-0.22,-0.37,178.25,87.6875,37.8125,0.660095,-0.252563,-0.670288,-0.226318
0.3125,1.6875,-0.1875,9.78,-0.21,-0.37,178.25,87.6875,37.8125,0.660156,-0.252502,-0.670227,-0.226318
-0.0625,0.875,-0.3125,9.79,-0.2,-0.36,178.25,87.6875,37.8125,0.660156,-0.252502,-0.670227,-0.226379
-0.125,-0.1875,-0.125,9.79,-0.2,-0.38,178.25,87.6875,37.8125,0.660095,-0.252502,-0.670288,-0.226318
0.0625,-1.125,0.0625,9.79,-0.2,-0.38,178.25,87.6875,37.8125,0.660095,-0.252502,-0.670288,-0.226318
-0.125,-1.9375,0.1875,9.78,-0.21,-0.39,178.25,87.6875,37.8125,0.659973,-0.252563,-0.67041,-0.226257
-0.125,-2.5,0.375,9.77,-0.25,-0.43,178.25,87.625,37.8125,0.659607,-0.252625,-0.670776,-0.226196
-0.125,-2.875,0.4375,9.76,-0.26,-0.42,178.25,87.625,37.8125,0.659424,-0.252686,-0.670959,-0.226135
-0.0625,-2.875,0.25,9.75,-0.24,-0.44,178.25,87.625,37.8125,0.65918,-0.252747,-0.671143,-0.226074
-0.1875,-3.0625,0.125,9.75,-0.24,-0.44,178.25,87.625,37.8125,0.65918,-0.252747,-0.671143,-0.226074
-0.0625,-2.9375,-0.125,9.77,-0.24,-0.44,178.25,87.5625,37.8125,0.658997,-0.252808,-0.671387,-0.226013
-0.125,-2.875,-0.0625,9.79,-0.22,-0.49,178.25,87.5625,37.8125,0.65863,-0.25293,-0.671753,-0.225891
-0.125,-2.625,-0.0625,9.8,-0.21,-0.49,178.25,87.5,37.8125,0.658447,-0.252991,-0.671875,-0.22583
-0.125,-2.3125,-0.0625,9.81,-0.22,-0.47,178.25,87.5,37.8125,0.658325,-0.252991,-0.672058,-0.225769
-0.1875,-2,0.1875,9.81,-0.22,-0.47,178.25,87.5,37.8125,0.658325,-0.252991,-0.672058,-0.225769
-0.0625,-1.4375,0.125,9.81,-0.24,-0.47,178.25,87.5,37.8125,0.658203,-0.253052,-0.67218,-0.225769
0,-0.4375,0.0625,9.79,-0.24,-0.5,178.25,87.5,37.8125,0.658081,-0.253052,-0.672241,-0.225769
0,-0.0625,0.1875,9.77,-0.26,-0.47,178.25,87.5,37.8125,0.658081,-0.253052,-0.672302,-0.225769
0.125,0.5,0,9.76,-0.23,-0.47,178.25,87.5,37.8125,0.658081,-0.253052,-0.672241,-0.225769
0.25,1.0625,-0.0625,9.76,-0.23,-0.47,178.25,87.5,37.8125,0.658081,-0.253052,-0.672241,-0.225769
0.25,1.6875,-0.25,9.76,-0.23,-0.44,178.25,87.5,37.8125,0.658142,-0.252991,-0.67218,-0.22583
0.0625,2,-0.25,9.79,-0.22,-0.44,178.312,87.5,37.875,0.658325,-0.25293,-0.671997,-0.225891
0.125,2.0625,-0.3125,9.79,-0.2,-0.44,178.312,87.5,37.875,0.658447,-0.252869,-0.671936,-0.225952
0.0625,2.125,-0.0625,9.79,-0.22,-0.41,178.312,87.5625,37.875,0.658508,-0.252808,-0.671814,-0.226013
-0.125,2.1875,-0.125,9.79,-0.22,-0.41,178.312,87.5625,37.875,0.658508,-0.252808,-0.671814,-0.226013
0.0625,2,0.0625,9.8,-0.24,-0.43,178.312,87.5625,37.875,0.65863,-0.252808,-0.671753,-0.226013
-0.0625,1.75,0.125,9.76,-0.24,-0.44,178.312,87.5625,37.875,0.658752,-0.252747,-0.67157,-0.226135
0,1.6875,0.0625,9.76,-0.24,-0.41,178.312,87.5625,37.875,0.658813,-0.252686,-0.67157,-0.226135
0.1875,1.1875,0,9.78,-0.26,-0.42,178.312,87.5625,37.875,0.658813,-0.252686,-0.671509,-0.226135
0.1875,0.75,-0.25,9.78,-0.26,-0.42,178.312,87.5625,37.875,0.658813,-0.252686,-0.67157,-0.226135
0.0625,0.3125,-0.1875,9.79,-0.2,-0.39,178.312,87.5625,37.875,0.658813,-0.252686,-0.67157,-0.226135
0,0.0625,-0.25,9.81,-0.22,-0.42,178.312,87.5625,37.875,0.658752,-0.252686,-0.67157,-0.226135
-0.125,-0.375,0.0625,9.77,-0.23,-0.42,178.312,87.5625,37.875,0.658691,-0.252686,-0.671631,-0.226135
-0.1875,-0.9375,0.0625,9.78,-0.22,-0.43,178.312,87.5625,37.875,0.65863,-0.252747,-0.671753,-0.226135
-0.125,-1.0625,0.375,9.78,-0.22,-0.43,178.312,87.5625,37.875,0.658508,-0.252747,-0.671814,-0.226074
-0.125,-1.125,0.25,9.77,-0.24,-0.42,178.312,87.5625,37.875,0.658447,-0.252747,-0.671936,-0.226074
-0.125,-1.375,0.125,9.77,-0.22,-0.44,178.312,87.5625,37.875,0.658325,-0.252808,-0.671997,-0.226013
0.0625,-1.3125,0.0625,9.77,-0.24,-0.44,178.312,87.5,37.875,0.658203,-0.252808,-0.672119,-0.226013
0,-1.375,-0.125,9.77,-0.23,-0.43,178.312,87.5,37.875,0.658142,-0.252869,-0.672241,-0.225952
0.0625,-1.375,-0.0625,9.77,-0.23,-0.43,178.312,87.5,37.875,0.65802,-0.252869,-0.672302,-0.225952
-0.0625,-1.125,-0.0625,9.79,-0.2,-0.45,178.312,87.5,37.875,0.657959,-0.252869,-0.672363,-0.225952
-0.1875,-0.8125,0.0625,9.79,-0.21,-0.45,178.312,87.5,37.875,0.657898,-0.252869,-0.672424,-0.225952
-0.1875,-0.625,0.25,9.77,-0.24,-0.47,178.312,87.5,37.875,0.657898,-0.252869,-0.672424,-0.225952
0.0625,-0.375,0.25,9.76,-0.23,-0.45,178.312,87.5,37.875,0.657837,-0.252869,-0.672485,-0.225952
-0.0625,-0.1875,0.0625,9.76,-0.23,-0.45,178.312,87.5,37.875,0.657837,-0.252869,-0.672485,-0.225952
0.0625,0.125,0.0625,9.79,-0.25,-0.45,178.312,87.5,37.875,0.657837,-0.25293,-0.672546,-0.225891
0.125,0.375,-0.125,9.79,-0.23,-0.46,178.312,87.5,37.875,0.657837,-0.252869,-0.672485,-0.225952
0.125,0.6875,-0.1875,9.78,-0.23,-0.45,178.312,87.5,37.875,0.657837,-0.252869,-0.672485,-0.225952
0.125,0.625,-0.0625,9.79,-0.22,-0.43,178.312,87.5,37.875,0.657837,-0.252869,-0.672485,-0.225952
0.0625,0.6875,-0.0625,9.79,-0.22,-0.43,178.312,87.5,37.875,0.657898,-0.252869,-0.672485,-0.225952
0.125,0.9375,0,9.78,-0.24,-0.42,178.312,87.5,37.875,0.657898,-0.252808,-0.672424,-0.226013
0.0625,0.9375,0,9.78,-0.22,-0.45,178.312,87.5,37.875,0.657959,-0.252808,-0.672424,-0.226013
-0.0625,0.75,0.125,9.76,-0.22,-0.44,178.312,87.5,37.875,0.657959,-0.252808,-0.672363,-0.226013
0,0.625,0.125,9.76,-0.23,-0.42,178.312,87.5,37.875,0.657898,-0.252808,-0.672424,-0.226013
-0.0625,0.5,-0.0625,9.76,-0.23,-0.42,178.312,87.5,37.875,0.657898,-0.252808,-0.672424,-0.226013
0.0625,0.375,-0.125,9.79,-0.22,-0.41,178.312,87.5,37.875,0.657898,-0.252808,-0.672424,-0.226013
0,0,-0.125,9.78,-0.22,-0.44,178.312,87.5,37.875,0.657898,-0.252808,-0.672485,-0.226013
0,0.125,0,9.78,-0.22,-0.39,178.312,87.5,37.875,0.657837,-0.252808,-0.672485,-0.226013
-0.0625,0,0.0625,9.79,-0.22,-0.43,178.312,87.5,37.875,0.657837,-0.252808,-0.672485,-0.226013
-0.0625,-0.4375,0.125,9.79,-0.22,-0.43,178.312,87.5,37.875,0.657837,-0.252808,-0.672485,-0.226074
-0.125,-0.5,0.0625,9.77,-0.22,-0.43,178.312,87.5,37.875,0.657776,-0.252808,-0.672546,-0.226013
0,-0.75,0.25,9.77,-0.25,-0.44,178.312,87.5,37.875,0.657715,-0.252808,-0.672607,-0.226013
0,-0.6875,0.0625,9.78,-0.25,-0.45,178.312,87.5,37.875,0.657654,-0.252869,-0.672668,-0.226013
0.0625,-0.6875,0.0625,9.78,-0.23,-0.45,178.312,87.5,37.875,0.657593,-0.252869,-0.672729,-0.226013
0.125,-0.625,-0.0625,9.78,-0.23,-0.45,178.312,87.5,37.875,0.657532,-0.252869,-0.672791,-0.225952
0.0625,-0.75,-0.0625,9.79,-0.22,-0.43,178.312,87.4375,37.875,0.657532,-0.252869,-0.672791,-0.225952
0.125,-0.5625,0.0625,9.78,-0.22,-0.45,178.312,87.4375,37.875,0.657471,-0.252869,-0.672852,-0.225952
-0.1875,-0.5,0.0625,9.79,-0.25,-0.45,178.312,87.4375,37.875,0.657471,-0.252869,-0.672852,-0.225952
0.0625,-0.1875,-0.0625,9.77,-0.23,-0.44,178.312,87.4375,37.875,0.657471,-0.252869,-0.672852,-0.225952
-0.125,-0.125,0.1875,9.77,-0.23,-0.44,178.312,87.4375,37.875,0.65741,-0.252869,-0.672913,-0.225952
0.0625,-0.125,0.0625,9.79,-0.22,-0.44,178.312,87.4375,37.9375,0.65741,-0.252869,-0.672913,-0.225952
0.1875,0.0625,0.0625,9.78,-0.21,-0.45,178.375,87.4375,37.9375,0.65741,-0.252869,-0.672913,-0.225952
0,0.375,-0.1875,9.79,-0.24,-0.41,178.375,87.4375,37.9375,0.65741,-0.252869,-0.672913,-0.225952
0,0.375,0.0625,9.78,-0.23,-0.44,178.375,87.4375,37.9375,0.657349,-0.252869,-0.672974,-0.225952
0,0.4375,0.0625,9.79,-0.23,-0.44,178.375,87.4375,37.9375,0.657349,-0.252869,-0.672974,-0.225952
0.0625,0.4375,0,9.8,-0.22,-0.43,178.375,87.4375,37.9375,0.657349,-0.252869,-0.672974,-0.225952
-0.0625,0.5,0.0625,9.78,-0.24,-0.44,178.375,87.4375,37.9375,0.657349,-0.252869,-0.672974,-0.225952
0,0.4375,-0.0625,9.79,-0.24,-0.46,178.375,87.4375,37.9375,0.657288,-0.252869,-0.673035,-0.225952
0.0625,0.4375,0.0625,9.79,-0.22,-0.42,178.375,87.4375,37.9375,0.657288,-0.252869,-0.673035,-0.225952
0.125,0.4375,-0.0625,9.76,-0.22,-0.42,178.375,87.4375,37.9375,0.657288,-0.252869,-0.673035,-0.225952
0,0.4375,0,9.8,-0.22,-0.39,178.375,87.4375,37.9375,0.657288,-0.252869,-0.673035,-0.225952
0.0625,0.1875,-0.125,9.79,-0.22,-0.45,178.375,87.4375,37.9375,0.657227,-0.252869,-0.673035,-0.225952
0.0625,-0.125,-0.125,9.78,-0.23,-0.42,178.375,87.4375,37.9375,0.657227,-0.252869,-0.673096,-0.225952
0,-0.1875,-0.0625,9.77,-0.22,-0.42,178.375,87.4375,37.9375,0.657227,-0.252869,-0.673096,-0.225952
0,-0.1875,0.0625,9.76,-0.22,-0.42,178.375,87.4375,37.9375,0.657227,-0.252869,-0.673096,-0.226013
-0.0625,-0.125,0,9.78,-0.22,-0.44,178.375,87.4375,37.9375,0.657227,-0.252869,-0.673096,-0.226013
-0.125,-0.25,0.0625,9.8,-0.23,-0.44,178.375,87.4375,37.9375,0.657166,-0.252869,-0.673157,-0.226013
-0.0625,-0.25,-0.125,9.8,-0.24,-0.44,178.375,87.4375,37.9375,0.657166,-0.252869,-0.673157,-0.226013
0,-0.25,0.0625,9.79,-0.25,-0.45,178.375,87.4375,37.9375,0.657166,-0.252869,-0.673157,-0.226013
0,-0.125,-0.1875,9.77,-0.25,-0.45,178.375,87.4375,37.9375,0.657166,-0.252869,-0.673157,-0.226013
0,-0.1875,0,9.78,-0.23,-0.44,178.375,87.4375,37.9375,0.657166,-0.252869,-0.673157,-0.226013
-0.125,-0.125,0,9.78,-0.23,-0.44,178.375,87.4375,37.9375,0.657166,-0.252869,-0.673157,-0.226013
-0.0625,-0.3125,0,9.78,-0.22,-0.45,178.375,87.4375,37.9375,0.657166,-0.252869,-0.673157,-0.226013
0.0625,-0.0625,-0.0625,9.79,-0.23,-0.43,178.375,87.4375,37.9375,0.657166,-0.252869,-0.673157,-0.226013
0.0625,0.0625,0.125,9.79,-0.23,-0.43,178.375,87.4375,37.9375,0.657166,-0.252869,-0.673157,-0.226013
-0.0625,0.0625,0,9.76,-0.24,-0.43,178.375,87.4375,37.9375,0.657166,-0.252869,-0.673157,-0.226013
0,0.0625,-0.0625,9.78,-0.23,-0.46,178.375,87.4375,37.9375,0.657166,-0.252869,-0.673157,-0.226013
-0.0625,0,0.0625,9.77,-0.23,-0.43,178.375,87.4375,37.9375,0.657166,-0.252869,-0.673157,-0.226013
0.1875,0.25,-0.125,9.79,-0.23,-0.42,178.375,87.4375,37.9375,0.657166,-0.252869,-0.673157,-0.226013
0.0625,0.3125,0,9.78,-0.23,-0.42,178.375,87.4375,37.9375,0.657166,-0.252869,-0.673157,-0.226013
0,0.1875,-0.125,9.79,-0.24,-0.45,178.375,87.4375,37.9375,0.657166,-0.252869,-0.673157,-0.226013
0.0625,0.1875,0.0625,9.77,-0.23,-0.45,178.375,87.4375,37.9375,0.657166,-0.252869,-0.673157,-0.226013
-0.0625,0.1875,-0.0625,9.8,-0.23,-0.42,178.375,87.4375,37.9375,0.657166,-0.252869,-0.673157,-0.226013
0,0,-0.125,9.77,-0.24,-0.42,178.375,87.4375,37.9375,0.657166,-0.252869,-0.673157,-0.226013
0,0.0625,0,9.79,-0.24,-0.42,178.375,87.4375,37.9375,0.657166,-0.252869,-0.673157,-0.226013
0.125,-0.0625,-0.0625,9.78,-0.41,-0.46,178.375,87.4375,37.9375,0.657166,-0.252869,-0.673157,-0.226013
0.125,-0.0625,0.3125,9.79,-0.21,-0.44,178.375,87.4375,37.9375,0.657043,-0.252869,-0.673279,-0.225952
0.4375,-1.4375,0.0625,9.21,-0.34,-0.31,178.375,87.4375,37.9375,0.65686,-0.252625,-0.673462,-0.226074
1,-2,-4.125,9.38,-0.03,-0.17,178.438,87.4375,38,0.65686,-0.252441,-0.673462,-0.22644
-1.25,1.1875,-4.3125,10.37,-0.03,-0.17,178.438,87.4375,38,0.65686,-0.252441,-0.673462,-0.22644
-5.3125,9,-1.5,10.1,0.13,-0.38,178.438,87.5625,38.0625,0.657227,-0.252502,-0.672913,-0.22699
-8.625,18.125,0.6875,10.23,-0.27,-0.71,178.438,87.875,38.25,0.659424,-0.252808,-0.669922,-0.228882
-10.125,27.3125,2.5,9.95,-0.31,-0.75,178.375,88.0625,38.3125,0.661377,-0.252869,-0.667664,-0.230042
-10.125,36.4375,3.125,9.71,-0.34,-0.69,178.375,88.25,38.4375,0.663635,-0.252563,-0.664978,-0.231384
-8.9375,43.75,1.25,9.38,-0.34,-0.69,178.375,88.25,38.4375,0.663635,-0.252563,-0.664978,-0.231384
-6.6875,47.3125,-3.0625,9.21,-0.4,-0.58,178.438,88.4375,38.5,0.666077,-0.251831,-0.662292,-0.232971
-4.0625,47.3125,-8.6875,9.63,-0.24,0.17,1.3125,88.5,38.8125,0.670532,-0.249207,-0.657593,-0.23645
-2.1875,41.6875,-13.125,8.93,-0.4,0.34,1.1875,88.5,39,0.671692,-0.247925,-0.656311,-0.237915
-1.5,27.6875,-14.75,9.28,-0.3,0.86,1,88.5,39.125,0.671997,-0.246887,-0.656067,-0.238831
1.6875,9.75,-13.1875,9.88,-0.3,0.86,1,88.5,39.125,0.671997,-0.246887,-0.656067,-0.238831
4.6875,-4.625,-8.375,10.17,0.05,0.24,0.9375,88.625,39.125,0.671692,-0.246277,-0.656555,-0.238953
6.4375,-21.25,-1,10.77,0.33,0.44,1,88.8125,38.9375,0.669128,-0.247009,-0.65979,-0.236572
7.5,-33.1875,9.1875,10.67,0.56,0.23,1.1875,88.75,38.6875,0.667297,-0.248474,-0.661865,-0.234314
6.5,-41.3125,17.6875,10.24,-0.06,0.23,178.562,88.5,38.4375,0.665039,-0.250305,-0.664307,-0.231873
4.5625,-49,20.0625,9.5,-0.06,0.23,178.562,88.5,38.4375,0.665039,-0.250305,-0.664307,-0.231873
2.0625,-53,19.125,9.35,-0.42,0.15,178.375,88.0625,38.1875,0.662476,-0.252319,-0.66687,-0.229553
-0.9375,-54.1875,15.125,9.28,-0.73,-0.49,178.125,87.25,37.9375,0.656799,-0.255981,-0.672302,-0.226074
-2.375,-53.75,9.6875,8.73,-0.69,-0.61,178.125,86.8125,37.9375,0.653809,-0.257202,-0.675049,-0.225037
-3.1875,-51.5,1.75,8.92,-0.54,-0.69,178.188,86.5,38.0625,0.650879,-0.257935,-0.677795,-0.224548
-3.5,-47.625,-6.5,9.28,-0.54,-0.69,178.188,86.5,38.0625,0.650879,-0.257935,-0.677795,-0.224548
-4.1875,-42.5,-11.8125,9.75,-0.31,-0.75,178.312,86.1875,38.1875,0.648132,-0.258301,-0.680298,-0.224548
-4.9375,-36.5625,-12.625,10.55,0.15,-1.13,178.5,85.6875,38.5,0.643616,-0.258911,-0.684265,-0.224792
-5.125,-30.875,-9.125,10.68,0.14,-1.23,178.562,85.4375,38.5625,0.642029,-0.25946,-0.685608,-0.22467
-4.3125,-24.875,-2.875,10.5,0,-1.31,178.5,85.25,38.5625,0.64093,-0.260132,-0.686462,-0.224304
-2.875,-18.875,2.6875,10.29,0,-1.31,178.5,85.25,38.5625,0.64093,-0.260132,-0.686462,-0.224304
-1,-12.8125,5.9375,9.62,-0.33,-1.35,178.438,85.125,38.5,0.640259,-0.260742,-0.687012,-0.223755
1,-6.1875,5.75,9.47,-0.46,-1.21,178.375,85.0625,38.375,0.640137,-0.261169,-0.687256,-0.2229
2.6875,0.25,3.125,9.42,-0.41,-1.03,178.375,85.125,38.3125,0.640625,-0.260864,-0.686951,-0.222839
3.375,7.1875,-0.125,9.5,-0.19,-0.89,178.375,85.25,38.3125,0.641479,-0.260254,-0.686279,-0.223145
3.0625,14.0625,-2.6875,9.89,-0.19,-0.89,178.375,85.25,38.3125,0.641479,-0.260254,-0.686279,-0.223145
2,20.5,-3.375,10.09,-0.11,-0.88,178.438,85.4375,38.375,0.642639,-0.259583,-0.685303,-0.223694
1,25.8125,-2,10.17,-0.1,-0.84,178.438,85.9375,38.375,0.645874,-0.258362,-0.682312,-0.224915
0.375,30.25,0.5,10.01,-0.19,-0.82,178.438,86.25,38.375,0.647827,-0.257874,-0.68042,-0.225525
0.1875,33.4375,2.625,9.85,-0.27,-0.78,178.375,86.5625,38.3125,0.649963,-0.257385,-0.678345,-0.226074
0.5,35.4375,3.625,9.72,-0.27,-0.78,178.375,86.5625,38.3125,0.649963,-0.257385,-0.678345,-0.226074
1.4375,36.625,3.1875,9.58,-0.33,-0.69,178.312,86.8125,38.3125,0.652161,-0.256775,-0.676331,-0.226624
2.5625,37.3125,1.5,9.56,-0.36,-0.33,178.312,87.4375,38.25,0.656555,-0.255127,-0.672302,-0.227844
3.1875,37.0625,-0.4375,9.58,-0.34,-0.21,178.375,87.6875,38.25,0.658569,-0.25415,-0.67041,-0.228516
3.375,35.8125,-2.125,9.62,-0.26,-0.09,178.375,87.9375,38.25,0.660522,-0.253113,-0.66864,-0.229309
2.8125,33.75,-3.5,9.66,-0.26,-0.09,178.375,87.9375,38.25,0.660522,-0.253113,-0.66864,-0.229309
1.75,30.0625,-3.875,9.71,-0.15,0.12,178.438,88.125,38.3125,0.66217,-0.252197,-0.667114,-0.230042
0.4375,24.75,-4,9.71,-0.12,0.16,178.5,88.375,38.375,0.664429,-0.251038,-0.664795,-0.231445
-1,18.5,-3.375,9.75,-0.12,0.15,178.5,88.4375,38.4375,0.664978,-0.250793,-0.664185,-0.231934
-2.1875,11.125,-2.4375,9.76,-0.15,0.03,178.5,88.4375,38.4375,0.6651,-0.250793,-0.66394,-0.232239
-2.5625,3.5625,-1.125,9.81,-0.15,0.03,178.5,88.4375,38.4375,0.6651,-0.250793,-0.66394,-0.232239
-2.5625,-3.5,0.5625,9.8,-0.18,-0.06,178.5,88.4375,38.5,0.664856,-0.251038,-0.664124,-0.2323
-1.625,-9.9375,2.125,9.81,-0.22,-0.22,178.5,88.3125,38.4375,0.663452,-0.251892,-0.665344,-0.231567
-0.5625,-15.25,3.125,9.73,-0.25,-0.23,178.438,88.1875,38.4375,0.662476,-0.252502,-0.666382,-0.230957
0.3125,-19.3125,3.5625,9.67,-0.26,-0.28,178.375,88.0625,38.375,0.661316,-0.253052,-0.667542,-0.230225
0.9375,-21.9375,3.3125,9.65,-0.26,-0.28,178.375,88.0625,38.375,0.661316,-0.253052,-0.667542,-0.230225
1.3125,-23.6875,2.5,9.64,-0.27,-0.29,178.375,87.875,38.3125,0.660034,-0.25354,-0.668823,-0.229492
1.125,-24.0625,1.3125,9.71,-0.26,-0.35,178.375,87.5625,38.25,0.65741,-0.254517,-0.671509,-0.228333
0.5,-23.625,0.4375,9.77,-0.22,-0.41,178.375,87.375,38.25,0.656128,-0.254944,-0.672729,-0.227844
-0.3125,-22.3125,-0.3125,9.84,-0.22,-0.46,178.375,87.25,38.25,0.654968,-0.255371,-0.673828,-0.227478
-1.125,-20.3125,-0.3125,9.88,-0.22,-0.46,178.375,87.25,38.25,0.654968,-0.255371,-0.673828,-0.227478
-1.6875,-17.6875,0.1875,9.88,-0.22,-0.62,178.375,87.125,38.3125,0.653931,-0.255798,-0.674805,-0.227234
-2.0625,-14.875,0.375,9.84,-0.24,-0.75,178.375,86.875,38.3125,0.652344,-0.256592,-0.676147,-0.226807
-1.875,-11.625,0.75,9.81,-0.28,-0.77,178.375,86.8125,38.3125,0.651794,-0.256836,-0.676636,-0.226685
-1.1875,-8.5625,0.5,9.79,-0.24,-0.79,178.375,86.75,38.3125,0.651489,-0.256958,-0.67688,-0.226624
-0.625,-5.4375,0.1875,9.8,-0.24,-0.79,178.375,86.75,38.3125,0.651489,-0.256958,-0.67688,-0.226624
0.375,-2.25,-0.3125,9.83,-0.23,-0.77,178.375,86.75,38.3125,0.651367,-0.257019,-0.677002,-0.226562
0.8125,0.9375,-0.5,9.86,-0.24,-0.64,178.375,86.75,38.3125,0.65155,-0.256836,-0.676941,-0.226501
1.125,3.9375,-0.375,9.88,-0.22,-0.57,178.375,86.8125,38.3125,0.651917,-0.256653,-0.676636,-0.226624
1.25,6.8125,-0.0625,9.84,-0.23,-0.56,178.375,86.875,38.3125,0.652466,-0.256409,-0.676147,-0.226746
1,9.9375,0.1875,9.82,-0.23,-0.56,178.375,86.875,38.3125,0.652466,-0.256409,-0.676147,-0.226746
0.8125,12,0.25,9.78,-0.24,-0.52,178.375,87,38.3125,0.653137,-0.256104,-0.675476,-0.22699
0.5625,13.5625,0.0625,9.75,-0.26,-0.5,178.375,87.125,38.3125,0.65387,-0.255859,-0.674744,-0.227234
0.5,14.375,-0.3125,9.74,-0.24,-0.43,178.375,87.3125,38.3125,0.655518,-0.255249,-0.673218,-0.227905
0.5,14.8125,-0.75,9.75,-0.22,-0.43,178.375,87.4375,38.3125,0.656311,-0.254944,-0.672424,-0.228271
0.375,14.9375,-0.8125,9.79,-0.22,-0.43,178.375,87.4375,38.3125,0.656311,-0.254944,-0.672424,-0.228271
0.5,14.5625,-0.8125,9.81,-0.22,-0.35,178.375,87.5625,38.3125,0.657104,-0.254639,-0.671631,-0.228638
0.625,13.5625,-0.6875,9.79,-0.21,-0.32,178.375,87.6875,38.375,0.657898,-0.254272,-0.670898,-0.228943
0.5,12.1875,-0.375,9.75,-0.22,-0.23,178.375,87.8125,38.375,0.65918,-0.253845,-0.669678,-0.229431
0.3125,10.5,-0.1875,9.73,-0.22,-0.17,178.375,87.875,38.375,0.659607,-0.253662,-0.669189,-0.229614
0.3125,8.4375,-0.1875,9.71,-0.22,-0.17,178.375,87.875,38.375,0.659607,-0.253662,-0.669189,-0.229614
0.125,5.625,-0.25,9.7,-0.23,-0.2,178.375,87.9375,38.375,0.659973,-0.25354,-0.668884,-0.229736
0,2.875,-0.4375,9.72,-0.2,-0.19,178.375,87.9375,38.375,0.660095,-0.253479,-0.668701,-0.229797
-0.125,0.3125,-0.4375,9.75,-0.19,-0.23,178.375,87.9375,38.375,0.659973,-0.25354,-0.668823,-0.229797
-0.3125,-2.1875,-0.1875,9.8,-0.21,-0.29,178.375,87.875,38.375,0.659729,-0.253601,-0.669067,-0.229675
-0.375,-4.3125,0.125,9.8,-0.21,-0.29,178.375,87.875,38.375,0.659729,-0.253601,-0.669067,-0.229675
-0.375,-6.3125,0.5,9.8,-0.21,-0.3,178.375,87.875,38.375,0.659363,-0.253723,-0.669434,-0.229553
-0.1875,-7.625,1,9.76,-0.23,-0.33,178.375,87.8125,38.375,0.658936,-0.253906,-0.669861,-0.229309
-0.125,-8.3125,0.875,9.74,-0.26,-0.23,178.375,87.6875,38.3125,0.65802,-0.254333,-0.670776,-0.228882
-0.125,-8.8125,0.8125,9.8,-0.26,0,178.375,87.625,38.3125,0.657715,-0.254639,-0.671021,-0.22876
-1.5625,-5.875,1.125,10.15,-0.27,0,178.375,87.625,38.3125,0.657715,-0.254639,-0.671021,-0.22876
-6.6875,2.375,0.9375,9.95,-0.21,-0.49,178.375,87.625,38.375,0.657715,-0.255005,-0.670715,-0.229187
-9.5,13.5625,-1,10.35,-0.21,-0.66,178.375,87.875,38.625,0.659485,-0.255371,-0.668152,-0.231262
-11.75,25.875,-0.1875,9.95,-0.26,-0.77,178.375,88.125,38.75,0.661316,-0.25531,-0.665771,-0.232849
-12.9375,38.5,-0.1875,9.66,-0.35,-0.64,178.438,88.3125,38.9375,0.663757,-0.254883,-0.662903,-0.234741
-12,48.125,-2.9375,9.53,-0.35,-0.64,178.438,88.3125,38.9375,0.663757,-0.254883,-0.662903,-0.234741
-9.6875,53.6875,-6.4375,10,-0.22,-0.33,1.4375,88.5,39.0625,0.666382,-0.253967,-0.65979,-0.236755
-7.75,53.125,-9.8125,9.54,-0.21,0.71,1.25,88.3125,39.4375,0.671265,-0.251709,-0.654236,-0.240967
-7.875,48,-10.625,9.32,-0.1,0.95,1.125,88.125,39.6875,0.673218,-0.250793,-0.651672,-0.243225
-11.6875,44.6875,-11.8125,9.5,-0.1,0.73,1,87.875,40,0.674927,-0.250061,-0.649292,-0.245789
-15.875,41.8125,-13.8125,9.05,-0.03,0.73,1,87.875,40,0.674927,-0.250061,-0.649292,-0.245789
-18.6875,34.625,-17,8.98,-0.18,0.43,0.875,87.625,40.3125,0.676086,-0.249512,-0.647278,-0.248535
-19.4375,15.6875,-18.5625,9.85,-0.42,1.49,0.5625,87.75,41,0.674622,-0.249695,-0.647217,-0.252319
-15.625,-15.4375,-14.5,11.31,-0.18,1.1,0.5,88,41.125,0.672668,-0.250793,-0.648682,-0.252625
-12.4375,-29.75,-4.0625,10.99,0.19,0.04,0.625,88.3125,41.125,0.670776,-0.252563,-0.650208,-0.251953
-10.1875,-33.75,8.375,10.25,0.46,0.04,0.625,88.3125,41.125,0.670776,-0.252563,-0.650208,-0.251953
-6.8125,-45.375,19,10.75,0.49,0.06,0.8125,88.625,41,0.668518,-0.254944,-0.652222,-0.250305
-3,-56.6875,27.5625,10.32,0.5,-0.44,178.562,88.5625,40.4375,0.663208,-0.260864,-0.657471,-0.244629
0.125,-60.25,31.5,9.48,-0.16,-0.48,178.312,88.1875,40.125,0.660339,-0.263611,-0.660461,-0.241455
2.25,-63.625,28.5,8.98,-0.77,-0.64,178.062,87.6875,39.875,0.657288,-0.26593,-0.663574,-0.238586
4,-64.1875,22.0625,8.51,-1.21,-0.64,178.062,87.6875,39.875,0.657288,-0.26593,-0.663574,-0.238586
5.0625,-62.5625,11.9375,8.45,-1.06,-0.52,177.938,87.25,39.6875,0.654114,-0.267578,-0.66687,-0.236206
5.1875,-59.8125,1.125,8.33,-0.75,-0.39,178.062,86.4375,39.625,0.647583,-0.268799,-0.673584,-0.233643
3.5,-54.875,-11.0625,8.78,-0.59,-0.43,178.25,86.125,39.8125,0.644409,-0.268616,-0.676697,-0.233643
0.375,-48.8125,-19.625,10.39,-0.14,-0.61,178.438,85.8125,40.0625,0.641541,-0.268494,-0.679382,-0.23407
-3.875,-41.375,-20.75,10.95,0.16,-0.61,178.438,85.8125,40.0625,0.641541,-0.268494,-0.679382,-0.23407
-7.5625,-34.4375,-15.0625,11.07,0.39,-0.91,178.625,85.5625,40.25,0.639099,-0.268738,-0.681396,-0.234497
-9.3125,-28.625,-5.6875,10.64,0.27,-1.58,178.625,85.0625,40.5,0.635681,-0.270569,-0.683899,-0.234558
-8.875,-22.625,3,10.28,-0.07,-1.63,178.562,84.9375,40.4375,0.634766,-0.271729,-0.684448,-0.23407
-6.125,-16.1875,8.875,9.78,-0.33,-1.61,178.438,84.8125,40.375,0.634399,-0.272644,-0.684631,-0.233459
-2.625,-9.5,10.125,9.35,-0.48,-1.61,178.438,84.8125,40.375,0.634399,-0.272644,-0.684631,-0.233459
1.25,-2.8125,7.25,9.15,-0.57,-1.37,178.375,84.75,40.3125,0.634399,-0.27301,-0.684692,-0.23291
4.1875,3.9375,1.875,9.35,-0.49,-0.99,178.375,84.875,40.1875,0.635437,-0.272156,-0.684082,-0.232788
5.5625,11.25,-3.25,9.69,-0.35,-0.88,178.438,85.0625,40.1875,0.636536,-0.271118,-0.68335,-0.233215
5.1875,18.375,-5.9375,10,-0.18,-0.78,178.5,85.3125,40.25,0.637939,-0.270142,-0.68219,-0.233826
3.9375,24.9375,-5.3125,10.41,0.03,-0.78,178.5,85.3125,40.25,0.637939,-0.270142,-0.68219,-0.233826
2.25,30.5,-2.25,10.32,0.05,-0.77,178.5,85.625,40.25,0.639709,-0.269287,-0.680603,-0.234558
0.6875,35.125,2.0625,10.14,0,-0.82,178.438,86.25,40.1875,0.644104,-0.268188,-0.676453,-0.235779
-0.25,38.6875,5.0625,9.9,-0.11,-0.79,178.375,86.625,40.125,0.646606,-0.2677,-0.674072,-0.236389
-0.4375,41.625,5.875,9.54,-0.38,-0.69,178.375,86.9375,40.125,0.64917,-0.26709,-0.67157,-0.237122
0.5625,43.8125,4.75,9.5,-0.44,-0.69,178.375,86.9375,40.125,0.64917,-0.26709,-0.67157,-0.237122
1.9375,45.3125,2.25,9.45,-0.48,-0.53,178.312,87.3125,40.0625,0.651855,-0.266174,-0.669067,-0.237915
3.25,45.875,-0.5,9.55,-0.38,-0.1,178.375,87.9375,40.0625,0.657104,-0.263794,-0.664246,-0.239685
4,45.5,-2.875,9.62,-0.33,0.08,178.375,88.1875,40.0625,0.659546,-0.26239,-0.661987,-0.240723
3.875,43.5625,-4.75,9.63,-0.23,0.24,178.438,88.375,40.125,0.661682,-0.261108,-0.659973,-0.24176
3,39.25,-5.6875,9.65,-0.17,0.24,178.438,88.375,40.125,0.661682,-0.261108,-0.659973,-0.24176
1.625,33.0625,-6,9.67,-0.08,0.45,178.5,88.5,40.1875,0.663452,-0.26001,-0.658264,-0.242737
-0.1875,25.0625,-5.875,9.81,-0.03,0.39,1.3125,88.5625,40.3125,0.665405,-0.258667,-0.656189,-0.244324
-1.875,15.625,-4.9375,9.77,-0.09,0.35,1.3125,88.625,40.375,0.665588,-0.258545,-0.655945,-0.244751
-2.6875,5.125,-2.8125,9.79,-0.07,0.14,1.3125,88.625,40.375,0.665222,-0.25885,-0.656128,-0.244812
-2.8125,-5.1875,0.3125,9.94,-0.13,0.14,1.3125,88.625,40.375,0.665222,-0.25885,-0.656128,-0.244812
-2.5,-13.5,3.1875,9.86,-0.08,-0.01,1.3125,88.625,40.375,0.66449,-0.25946,-0.656799,-0.244446
-1.8125,-20.125,5.1875,9.74,-0.19,-0.17,178.5,88.5,40.25,0.66217,-0.261169,-0.659058,-0.242981
-0.625,-25.25,6.125,9.69,-0.19,-0.31,178.438,88.375,40.1875,0.660706,-0.262024,-0.660461,-0.242004
0.4375,-28.125,5.8125,9.55,-0.32,-0.32,178.375,88.1875,40.125,0.65918,-0.262878,-0.662048,-0.241028
1.0625,-29.75,4.625,9.51,-0.32,-0.32,178.375,88.1875,40.125,0.65918,-0.262878,-0.662048,-0.241028
1.375,-30.0625,2.625,9.6,-0.33,-0.33,178.375,88,40.0625,0.657532,-0.26355,-0.663696,-0.240112
1.3125,-28.6875,0.4375,9.77,-0.26,-0.38,178.375,87.6875,40.0625,0.65448,-0.264526,-0.666809,-0.238831
0.625,-26.8125,-0.875,9.85,-0.22,-0.41,178.375,87.5,40.0625,0.653076,-0.264893,-0.668213,-0.238403
-0.125,-23.8125,-1.3125,9.93,-0.2,-0.51,178.438,87.375,40.0625,0.651855,-0.26532,-0.669312,-0.238037
-1.1875,-20.4375,-1.4375,9.98,-0.17,-0.51,178.438,87.375,40.0625,0.651855,-0.26532,-0.669312,-0.238037
-2.0625,-16.75,-0.4375,9.92,-0.19,-0.63,178.438,87.1875,40.125,0.650879,-0.265747,-0.670227,-0.237793
-2.5,-13,0.4375,9.84,-0.21,-0.78,178.375,87,40.125,0.649536,-0.266541,-0.671326,-0.237549
-2.3125,-9.25,0.9375,9.81,-0.24,-0.79,178.375,87,40.125,0.649231,-0.266785,-0.67157,-0.237427
-1.4375,-5.5,1,9.77,-0.26,-0.75,178.375,86.9375,40.125,0.649109,-0.266846,-0.671631,-0.237366
-0.5625,-2,0.6875,9.81,-0.28,-0.75,178.375,86.9375,40.125,0.649109,-0.266846,-0.671631,-0.237366
0.625,1.8125,0,9.81,-0.26,-0.67,178.375,87,40.125,0.649231,-0.266785,-0.67157,-0.237366
1.4375,5.375,-0.3125,9.85,-0.23,-0.63,178.375,87,40.125,0.649475,-0.266602,-0.670959,-0.237488
1.8125,9.1875,-0.5,9.87,-0.22,-0.48,178.375,87.1875,40.0625,0.650696,-0.265991,-0.670349,-0.23761
1.8125,12.25,-0.4375,9.85,-0.23,-0.48,178.375,87.3125,40.0625,0.65155,-0.265625,-0.669617,-0.237854
1.5625,14.875,-0.25,9.79,-0.23,-0.44,178.375,87.3125,40.0625,0.65155,-0.265625,-0.669617,-0.237854
1.0625,17,-0.0625,9.79,-0.22,-0.41,178.375,87.4375,40.0625,0.652527,-0.265198,-0.668701,-0.238159
0.5,18.5,-0.1875,9.75,-0.23,-0.39,178.375,87.5625,40.0625,0.653503,-0.264832,-0.667725,-0.238586
0.3125,19.4375,-0.3125,9.76,-0.23,-0.3,178.375,87.8125,40.125,0.655701,-0.264038,-0.665588,-0.239502
0.125,19.625,-0.6875,9.77,-0.23,-0.3,178.375,87.9375,40.125,0.656738,-0.263611,-0.664551,-0.23999
0.125,19.3125,-0.6875,9.76,-0.24,-0.28,178.375,87.9375,40.125,0.656738,-0.263611,-0.664551,-0.23999
0.25,18.375,-0.8125,9.73,-0.23,-0.14,178.438,88.0625,40.125,0.657776,-0.263184,-0.663574,-0.240417
0.375,16.6875,-0.75,9.71,-0.25,-0.11,178.438,88.1875,40.125,0.658691,-0.262817,-0.662659,-0.240845
0.375,14.4375,-0.9375,9.69,-0.22,-0.01,178.438,88.3125,40.1875,0.660095,-0.262146,-0.661255,-0.241516
0.4375,11.25,-1.0625,9.7,-0.23,-0.01,178.438,88.3125,40.1875,0.660461,-0.261902,-0.660828,-0.24176
0.125,7.5,-1.125,9.72,-0.2,0,178.438,88.3125,40.1875,0.660461,-0.261902,-0.660828,-0.24176
0.0625,3.5,-1.125,9.76,-0.16,-0.01,178.438,88.375,40.1875,0.660645,-0.26178,-0.660706,-0.241943
-0.1875,-0.5625,-0.5625,9.81,-0.15,-0.04,178.438,88.375,40.1875,0.660645,-0.26178,-0.660645,-0.241943
-0.3125,-4.5625,0.1875,9.84,-0.18,0.19,178.438,88.3125,40.1875,0.660034,-0.262085,-0.661316,-0.241638
-0.625,-7.125,1.125,10.27,-0.17,-0.15,178.438,88.25,40.1875,0.659851,-0.262573,-0.661255,-0.241638
-4.25,-2.1875,3.125,9.6,0.06,-0.15,178.438,88.25,40.1875,0.659851,-0.262573,-0.661255,-0.241638
-10,5.625,2.375,9.71,-0.23,-0.27,178.375,88.25,40.25,0.659973,-0.263123,-0.660706,-0.242188
-12.4375,17.5625,0.375,9.79,-0.44,-0.49,178.438,88.375,40.5625,0.661926,-0.263672,-0.657532,-0.244812
-15,28.75,-1.125,9.56,-0.26,-0.54,1.5,88.4375,40.75,0.663696,-0.26355,-0.655151,-0.246704
-15,38.875,-3,9.84,-0.23,-0.15,1.4375,88.4375,40.9375,0.665588,-0.263,-0.652649,-0.248718
-12.6875,41.75,-7,9.52,-0.21,-0.15,1.4375,88.4375,40.9375,0.665588,-0.263,-0.652649,-0.248718
-9.9375,39.1875,-8.625,9.73,-0.08,0.58,1.3125,88.3125,41.125,0.667358,-0.262268,-0.650452,-0.25061
-10.375,33.6875,-9.25,9.4,-0.11,0.64,1.1875,88.0625,41.5625,0.6698,-0.26123,-0.646912,-0.254272
-12.4375,27.25,-9.3125,9.25,-0.18,-0.22,1.0625,87.9375,41.8125,0.670288,-0.261047,-0.645752,-0.256042
-14,19.5625,-10.1875,8.83,-0.44,0.79,1,88,42,0.6698,-0.261047,-0.645813,-0.257202
-10.3125,-0.875,-10.375,10.43,-0.34,0.79,1,88,42,0.6698,-0.261047,-0.645813,-0.257202
-3.375,-23.5,-5.625,10.46,-0.01,0.45,0.9375,88.25,42.0625,0.668335,-0.261475,-0.647156,-0.257202
1.5,-36.375,2.3125,10.53,0.07,0.01,1.0625,88.6875,41.875,0.664185,-0.263672,-0.651733,-0.25415
5.5,-47.625,11.875,10.77,0.44,-0.23,1.25,88.6875,41.5625,0.661743,-0.265442,-0.654602,-0.251404
8,-55.125,18.6875,9.58,0.08,-0.07,178.5,88.4375,41.3125,0.659058,-0.267212,-0.657654,-0.248535
8.875,-59.3125,18.6875,9.64,-0.37,-0.07,178.5,88.4375,41.3125,0.659058,-0.267212,-0.657654,-0.248535
8.1875,-60.3125,17.125,9.42,-0.69,-0.08,178.375,88.0625,41.0625,0.656189,-0.268982,-0.660767,-0.245789
6,-58.25,13.375,9.09,-0.83,-0.17,178.125,87.1875,40.6875,0.650513,-0.272034,-0.666748,-0.241455
3.125,-55.1875,8.4375,8.76,-0.59,-0.33,178.125,86.75,40.6875,0.647644,-0.273071,-0.669495,-0.240295
-0.25,-50.6875,0.125,9.05,-0.53,-0.43,178.188,86.4375,40.75,0.644836,-0.273743,-0.672119,-0.239868
-3.6875,-45.0625,-8.0625,9.58,-0.39,-0.43,178.188,86.4375,40.75,0.644836,-0.273743,-0.672119,-0.239868
-6.875,-38.6875,-13,10.46,-0.02,-0.83,178.375,86.1875,40.9375,0.642212,-0.274109,-0.674377,-0.240112
-9.0625,-32.25,-13.125,10.59,0.13,-1.08,178.562,85.75,41.375,0.638,-0.275085,-0.677673,-0.241028
-9.75,-26.125,-9.125,10.64,0.14,-1.5,178.625,85.5625,41.5,0.636536,-0.275757,-0.67865,-0.241211
-8.5625,-20.5625,-3,10.47,0.06,-1.55,178.562,85.4375,41.5,0.63562,-0.276489,-0.67926,-0.241028
-5.25,-14.625,2.6875,9.88,-0.25,-1.55,178.562,85.4375,41.5,0.63562,-0.276489,-0.67926,-0.241028
-1,-8.6875,6.1875,9.61,-0.38,-1.39,178.5,85.3125,41.4375,0.635254,-0.2771,-0.679565,-0.24054
3,-2.8125,6.25,9.44,-0.42,-1.24,178.438,85.3125,41.25,0.635681,-0.277222,-0.679504,-0.239502
5.375,3.3125,3.75,9.43,-0.46,-0.72,178.438,85.375,41.1875,0.636414,-0.276733,-0.679077,-0.23938
6.375,9.8125,0.625,9.73,-0.29,-0.72,178.438,85.5,41.1875,0.637451,-0.27594,-0.678345,-0.239502
5.625,16.3125,-2.0625,9.92,-0.19,-0.64,178.438,85.5,41.1875,0.637451,-0.27594,-0.678345,-0.239502
3.6875,22.5,-3.1875,10.09,-0.11,-0.62,178.438,85.75,41.125,0.638733,-0.275085,-0.677307,-0.23999
1.4375,27.875,-2.375,10.15,-0.03,-0.65,178.5,86.3125,41.1875,0.642151,-0.273682,-0.674133,-0.241455
-0.5,32.4375,-0.5,9.99,-0.1,-0.76,178.438,86.625,41.1875,0.644226,-0.273132,-0.672119,-0.242249
-1.4375,35.6875,1.9375,9.83,-0.17,-0.76,178.438,86.9375,41.1875,0.646423,-0.272583,-0.669922,-0.243042
-1.375,38.25,3,9.75,-0.26,-0.74,178.438,86.9375,41.1875,0.646423,-0.272583,-0.669922,-0.243042
1,41.0625,1.75,9.61,-0.38,-0.54,178.438,87.25,41.1875,0.648804,-0.27179,-0.667664,-0.243835
1,41.0625,1.75,9.59,-0.4,-0.46,178.375,87.8125,41.125,0.653564,-0.269958,-0.663086,-0.245422
2.5,42.125,0.125,9.6,-0.36,-0.09,178.438,88.125,41.125,0.655945,-0.26886,-0.660889,-0.246277
3.25,41.25,-1.4375,9.57,-0.31,-0.09,178.438,88.3125,41.125,0.658142,-0.2677,-0.658875,-0.247131
3.5,39.1875,-2.9375,9.58,-0.22,0.25,178.438,88.3125,41.125,0.658142,-0.2677,-0.658875,-0.247131
1.375,28.5,-5.0625,9.56,-0.17,0.36,178.5,88.4375,41.1875,0.659668,-0.266724,-0.65741,-0.247986
1.375,28.5,-5.0625,9.64,-0.13,0.43,1.375,88.5625,41.25,0.66217,-0.265015,-0.654968,-0.249634
-0.3125,20.75,-5.3125,9.75,-0.1,0.29,1.3125,88.625,41.3125,0.66217,-0.264954,-0.654846,-0.249939
-2.75,2.25,-2.8125,9.77,-0.08,0.29,1.3125,88.625,41.375,0.661804,-0.265259,-0.65509,-0.25
-2.9375,-6.3125,0.0625,9.95,-0.06,0.22,1.3125,88.625,41.375,0.661804,-0.265259,-0.65509,-0.25
-2.6875,-13.1875,2.75,10,-0.09,0.07,178.562,88.5625,41.375,0.661072,-0.265869,-0.655762,-0.249695
-1.625,-19.125,4.8125,9.86,-0.09,-0.03,178.5,88.4375,41.25,0.658875,-0.267456,-0.657837,-0.24823
-0.4375,-22.9375,5.75,9.73,-0.22,-0.2,178.438,88.25,41.1875,0.657593,-0.26825,-0.659119,-0.247375
0.5,-25.375,5.5,9.67,-0.27,-0.22,178.375,88.125,41.125,0.65625,-0.268982,-0.660522,-0.24646
1.25,-26.4375,4.0625,9.56,-0.29,-0.26,178.375,88.125,41.125,0.65625,-0.268982,-0.660522,-0.24646
1.5625,-26.4375,2.0625,9.59,-0.35,-0.31,178.375,87.9375,41.0625,0.654846,-0.269592,-0.661926,-0.245667
1.375,-25.25,0.25,9.66,-0.31,-0.3,178.375,87.625,41.0625,0.652161,-0.270386,-0.664673,-0.244507
0.8125,-22.9375,-1.125,9.73,-0.28,-0.32,178.375,87.625,41.0625,0.651001,-0.270691,-0.665833,-0.24408
-0.375,-20.1875,-1.4375,9.84,-0.22,-0.34,178.438,87.375,41.0625,0.649963,-0.271057,-0.666748,-0.243835
-1.4375,-16.875,-1,9.97,-0.18,-0.43,178.438,87.375,41.125,0.649963,-0.271057,-0.666748,-0.243835
-1.9375,-13.125,-0.3125,9.96,-0.15,-0.51,178.438,87.25,41.125,0.64917,-0.271484,-0.667419,-0.243652
-2.25,-9.625,0.625,9.93,-0.17,-0.59,178.375,87.125,41.125,0.648254,-0.272095,-0.668213,-0.243469
-1.875,-6.125,1.0625,9.84,-0.19,-0.68,178.375,87.125,41.125,0.648071,-0.272278,-0.668274,-0.243408
-1.0625,-2.625,1.125,9.77,-0.28,-0.72,178.375,87.125,41.125,0.648132,-0.272339,-0.668213,-0.243347
-0.0625,0.6875,0.6875,9.73,-0.29,-0.74,178.375,87.125,41.125,0.648132,-0.272339,-0.668213,-0.243347
1.125,3.75,0,9.76,-0.27,-0.64,178.375,87.125,41.125,0.648376,-0.272156,-0.66803,-0.243408
1.6875,7.0625,-0.5,9.81,-0.25,-0.6,178.375,87.1875,41.125,0.649414,-0.271667,-0.667236,-0.24353
1.875,10.0625,-0.5625,9.85,-0.23,-0.48,178.375,87.25,41.0625,0.650085,-0.271301,-0.666565,-0.243774
1.625,12.75,-0.5625,9.87,-0.22,-0.42,178.375,87.375,41.0625,0.65094,-0.270935,-0.665833,-0.244019
1.1875,14.875,-0.25,9.84,-0.21,-0.4,178.375,87.5,41.0625,0.65094,-0.270935,-0.665833,-0.244019
0.6875,16.4375,-0.1875,9.78,-0.21,-0.33,178.375,87.625,41.0625,0.651855,-0.270569,-0.664917,-0.244385
0.0625,17.25,-0.3125,9.74,-0.21,-0.3,178.375,87.75,41.0625,0.652832,-0.270203,-0.664001,-0.244751
-0.25,17.6875,-0.3125,9.75,-0.21,-0.3,178.375,87.9375,41.0625,0.654785,-0.269409,-0.662109,-0.245605
-0.25,17.125,-0.75,9.74,-0.22,-0.26,178.375,87.9375,41.0625,0.654785,-0.269043,-0.661255,-0.246033
-0.125,15.9375,-0.8125,9.75,-0.24,-0.22,178.375,88.0625,41.125,0.65564,-0.269043,-0.661255,-0.246033
0.1875,14.1875,-0.875,9.74,-0.24,-0.16,178.438,88.125,41.125,0.656372,-0.268677,-0.660522,-0.246399
0.1875,12.1875,-1.125,9.71,-0.23,-0.09,178.438,88.1875,41.125,0.657043,-0.268372,-0.659851,-0.246704
0.25,9.25,-0.9375,9.75,-0.22,-0.09,178.438,88.25,41.125,0.657837,-0.267944,-0.659058,-0.247192
0.3125,5.5625,-0.8125,9.78,-0.23,0.04,178.438,88.3125,41.125,0.658142,-0.268005,-0.658691,-0.247314
-1.375,5.25,1.375,10.67,-0.25,0.46,178.438,88.3125,41.125,0.658142,-0.268005,-0.658691,-0.247314
-7.0625,9.1875,3.0625,9.6,0.41,0.19,178.375,88.3125,41.1875,0.658569,-0.268372,-0.657959,-0.247742
-11.3125,18.25,1.1875,9.62,-0.12,0.06,178.375,88.375,41.3125,0.660461,-0.269043,-0.654907,-0.250122
-15.1875,26.3125,0.75,9.83,-0.44,-0.29,1.5625,88.375,41.625,0.661926,-0.269165,-0.65271,-0.25177
-16,33.125,-1.0625,9.39,-0.3,-0.43,1.5,88.375,41.8125,0.66333,-0.268921,-0.650696,-0.253601
-14,33,-5.0625,9.56,-0.33,-0.33,1.5,88.375,41.8125,0.66333,-0.268921,-0.650696,-0.253601
-11.1875,28.1875,-7.0625,9.6,-0.14,0.22,1.4375,88.3125,42,0.664429,-0.268616,-0.648987,-0.255249
-10.1875,21.5625,-7.125,9.97,-0.15,0.4,1.3125,88.1875,42.3125,0.665833,-0.26825,-0.646667,-0.257935
-10.4375,16.625,-5,9.76,-0.05,0.41,1.3125,88.1875,42.5,0.666077,-0.268494,-0.645874,-0.259094
-12.3125,11.5,-3.6875,9.65,-0.08,0.54,1.25,88.125,42.625,0.666016,-0.268921,-0.645264,-0.260254
-14.3125,6.375,-4,9.25,-0.22,0.4,1.25,88.125,42.625,0.666016,-0.268921,-0.645264,-0.260254
-14.25,-0.8125,-5.625,9.17,-0.37,0.13,1.1875,88.1875,42.8125,0.665527,-0.26947,-0.645142,-0.261292
-9.1875,-17.125,-5.3125,9.5,-0.6,-0.48,1.125,88.5625,43,0.662354,-0.270813,-0.64801,-0.260925
0.5,-35,0.25,10.21,-0.37,0.04,1.1875,88.6875,42.8125,0.660217,-0.271729,-0.650513,-0.259033
8.125,-45,7.125,10.37,0.1,-0.21,178.625,88.625,42.5625,0.657959,-0.272766,-0.65332,-0.256531
12.625,-50.4375,11.25,9.95,0.45,-0.41,178.625,88.625,42.5625,0.657959,-0.272766,-0.65332,-0.256531
14.125,-54.5625,10.9375,9.92,0.06,-0.3,178.5,88.375,42.3125,0.655518,-0.273743,-0.656433,-0.253906
13.375,-53.875,11.3125,9.85,-0.25,-0.02,178.312,87.625,42.0625,0.650696,-0.275879,-0.662231,-0.248962
10.375,-51.125,10.125,9.43,-0.54,-0.02,178.188,87.1875,41.6875,0.648254,-0.276978,-0.664856,-0.24707
6,-48.375,7.25,9.14,-0.44,0.03,178.188,86.875,41.6875,0.645813,-0.277893,-0.667236,-0.245911
0.8125,-44.0625,1.375,9.09,-0.44,0.06,178.188,86.875,41.6875,0.645813,-0.277893,-0.667236,-0.245911
-4.4375,-38.4375,-4.1875,9.57,-0.39,-0.26,178.25,86.5625,41.75,0.643433,-0.278748,-0.669312,-0.245544
-8.8125,-32.125,-7.6875,9.78,-0.24,-0.55,178.438,86.3125,41.875,0.639343,-0.28009,-0.672424,-0.246155
-11.1875,-26,-8.5,10.12,-0.16,-0.8,178.5,85.9375,42.25,0.637756,-0.280762,-0.673462,-0.246643
-11.125,-20.375,-6.5,10.32,-0.09,-1.08,178.5,85.875,42.375,0.636658,-0.281372,-0.674133,-0.246948
-9.0625,-14.75,-2.6875,10.3,0,-1.38,178.5,85.875,42.375,0.636658,-0.281372,-0.674133,-0.246948
-5.375,-9.1875,1,10.14,-0.1,-1.5,178.5,85.75,42.4375,0.636047,-0.281921,-0.6745,-0.247009
-0.75,-4,3.5,9.96,-0.19,-1.46,178.438,85.6875,42.3125,0.636108,-0.282288,-0.674561,-0.246399
3.4375,1.125,4.125,9.77,-0.29,-1.36,178.375,85.75,42.25,0.636658,-0.281982,-0.674255,-0.245972
6.25,6.125,3,9.61,-0.36,-0.96,178.375,85.875,42.125,0.637512,-0.281433,-0.673767,-0.245789
7.3125,11.875,1.0625,9.63,-0.33,-0.75,178.375,85.875,42.125,0.637512,-0.281433,-0.673767,-0.245789
6.375,17.375,-0.6875,9.73,-0.29,-0.59,178.375,86,42.0625,0.638672,-0.28064,-0.672974,-0.245911
4.4375,22.625,-1.5625,9.83,-0.22,-0.51,178.438,86.1875,42.0625,0.641602,-0.279114,-0.670471,-0.246887
2,27.125,-1.5,9.98,-0.14,-0.43,178.438,86.75,42.0625,0.643311,-0.278442,-0.668823,-0.24762
-0.4375,30.9375,-0.625,9.95,-0.13,-0.46,178.438,87,42.125,0.645203,-0.277832,-0.666931,-0.248535
-1.8125,33.5,0.25,9.86,-0.14,-0.51,178.438,87,42.125,0.645203,-0.277832,-0.666931,-0.248535
-2.25,35.3125,0.625,9.8,-0.24,-0.54,178.438,87.3125,42.125,0.647095,-0.277222,-0.664978,-0.249451
-1.625,36.5625,0.5,9.73,-0.26,-0.56,178.438,87.5625,42.125,0.649109,-0.27655,-0.662903,-0.250366
-0.5625,37,0.1875,9.71,-0.3,-0.49,178.438,87.8125,42.1875,0.653076,-0.275024,-0.659058,-0.251953
0.875,36.1875,-0.4375,9.66,-0.32,-0.37,178.438,88.0625,42.1875,0.653076,-0.27417,-0.657227,-0.252686
1.8125,34.1875,-1.125,9.64,-0.43,-0.13,178.438,88.25,42.1875,0.654968,-0.27417,-0.657227,-0.252686
2.6875,29.5,-1.5625,9.33,-0.24,0,178.438,88.375,42.1875,0.656616,-0.273315,-0.655701,-0.253296
4.4375,19.6875,-3.8125,9.21,-0.24,0.27,178.5,88.4375,42.1875,0.658264,-0.271606,-0.65448,-0.254028
4.75,9.625,-5.4375,9.54,-0.24,0.32,178.562,88.5625,42.1875,0.658142,-0.27124,-0.654846,-0.253906
4.625,-3,-3.9375,9.79,-0.09,0.25,178.562,88.5,42.1875,0.657288,-0.27124,-0.655945,-0.253235
5.625,-17.5625,-0.8125,9.83,0.1,0.31,178.562,88.5,42.125,0.657288,-0.27124,-0.655945,-0.253235
6.3125,-32.25,2.3125,9.97,0.05,0.32,178.562,88.375,42,0.655701,-0.271667,-0.657837,-0.252014
6.1875,-45.6875,5.375,9.83,0,0.3,178.438,88.0625,41.875,0.650391,-0.273926,-0.663574,-0.248291
5.375,-58.5625,7,9.59,-0.28,0.11,178.375,87.0625,41.625,0.646667,-0.275574,-0.667297,-0.246033
4.25,-70.125,6.875,9.43,-0.38,0,178.312,86.375,41.5,0.642334,-0.277344,-0.671631,-0.243652
3,-80.625,5.1875,9.42,-0.46,-0.07,178.312,86.375,41.5,0.642334,-0.277344,-0.671631,-0.243652
0.9375,-88.6875,2.0625,9.16,-0.33,-0.24,178.312,85.5625,41.4375,0.637329,-0.279236,-0.676453,-0.241394
-1.9375,-93.5625,-2.4375,9.33,-0.32,-0.39,178.312,84.6875,41.5,0.62616,-0.282959,-0.686462,-0.237854
-5.875,-93.8125,-5.9375,9.71,-0.26,-0.65,167.375,83.0625,41.75,0.620544,-0.284851,-0.691162,-0.236694
-9.8125,-89.875,-7.4375,9.98,-0.16,-0.9,168.438,82.375,41.75,0.61615,-0.286987,-0.694702,-0.235413
-10,-71.9375,2.3125,10.15,0.75,-3.01,168.438,82.375,41.8125,0.61615,-0.286987,-0.694702,-0.235413
-5.4375,-48.25,22.5625,8.88,1.14,-2.43,167.625,81.875,41.625,0.613647,-0.289551,-0.696533,-0.233398
-5.8125,-37.9375,19.1875,8.81,-0.25,-2.04,166.625,81.4375,41.5,0.610535,-0.292908,-0.698669,-0.230957
-3.125,-20.5625,10.6875,8.85,-0.98,-2.13,166.562,81.1875,41.375,0.610229,-0.293274,-0.698853,-0.230713
-1.8125,-6,2.9375,8.93,-0.77,-1.99,166.688,81.25,41.375,0.610657,-0.292969,-0.698364,-0.231262
-1.75,9.9375,-3.5625,8.91,-0.41,-1.95,166.688,81.25,41.4375,0.610657,-0.292969,-0.698364,-0.231262
-2.5,27.0625,-10.8125,9.04,-0.34,-1.89,167,81.5625,41.625,0.612,-0.291931,-0.697205,-0.232666
-3.375,41.5,-16.875,9.31,-0.32,-1.65,167.5,82,41.8125,0.614014,-0.288391,-0.692871,-0.237183
-3.6875,55.5,-17.0625,11.13,-0.06,-1.9,178.5,83.1875,42.1875,0.620483,-0.286621,-0.689514,-0.239441
-2.625,66.875,-9.125,10.84,0.41,-1.71,178.5,83.875,42.1875,0.624878,-0.285034,-0.685608,-0.241333
-0.5,75.5625,-1.0625,10.89,0.22,-1.71,178.5,83.875,42.1875,0.624878,-0.285034,-0.685608,-0.241333
3.0625,81.125,6,10.5,-0.07,-1.63,178.438,84.625,42.125,0.629761,-0.283569,-0.681213,-0.242798
6.875,83.75,9.3125,9.4,-0.31,-1.17,178.312,85.375,42,0.640137,-0.280151,-0.672119,-0.244934
10.1875,84.6875,7.375,9.21,-0.4,-0.93,178.25,86.8125,41.875,0.645264,-0.277832,-0.667725,-0.246094
12.4375,84.125,2.625,9.22,-0.48,-0.66,178.25,87.4375,41.6875,0.650146,-0.275391,-0.663574,-0.247314
12.9375,82.0625,-0.8125,9.73,-0.47,0,178.25,87.4375,41.625,0.650146,-0.275391,-0.663574,-0.247314
11.875,79.4375,-2.25,9.52,-0.27,0.32,178.25,87.9375,41.5625,0.654846,-0.272949,-0.659485,-0.248596
9.0625,73.0625,-3.875,9.36,-0.16,0.71,178.312,88.25,41.5,0.662415,-0.268738,-0.652466,-0.251465
4.6875,62,-6.25,9.42,-0.1,0.99,1.5,88.3125,41.625,0.664673,-0.267334,-0.650208,-0.252869
0.6875,44,-7.8125,8.97,-0.11,1.32,1.4375,88.25,41.625,0.66571,-0.266724,-0.649048,-0.253906
-2.625,22.3125,-5.9375,9.26,0.01,1.37,1.4375,88.25,41.6875,0.66571,-0.266724,-0.649048,-0.253906
-5.6875,1,-3.9375,9.59,-0.04,1.15,1.375,88.3125,41.8125,0.665588,-0.266785,-0.648926,-0.254456
-7.4375,-19.4375,0.25,9.68,-0.08,0.79,1.4375,88.375,41.875,0.662292,-0.269104,-0.65155,-0.253784
-7.875,-35.1875,5.0625,9.89,-0.12,0.28,178.438,88.4375,41.875,0.65979,-0.270935,-0.653809,-0.252686
-7.4375,-45.75,7.625,9.73,-0.09,-0.31,178.438,88.4375,41.875,0.656799,-0.272766,-0.656555,-0.251343
-5.125,-55.0625,7,9.69,-0.27,-0.45,178.375,88.25,41.875,0.656799,-0.272766,-0.656555,-0.251343
-1.5,-60,5.8125,9.47,-0.35,-0.49,178.312,87.875,41.8125,0.653503,-0.274414,-0.659729,-0.249695
2.0625,-63.9375,3.9375,9.5,-0.53,-0.67,178.25,87.4375,41.6875,0.650085,-0.275879,-0.666992,-0.245911
5.125,-68.0625,2.0625,9.29,-0.36,-0.54,178.25,86.375,41.5625,0.642517,-0.278198,-0.671082,-0.243896
6.4375,-71.75,-1,9.55,-0.36,-0.42,178.25,86.375,41.5625,0.638367,-0.279236,-0.675232,-0.242004
5.5,-73.3125,-3.1875,9.81,-0.13,-0.32,178.25,85.75,41.5,0.638367,-0.279236,-0.675232,-0.242004
1.875,-73.0625,-3.75,9.99,-0.1,-0.36,178.312,85.0625,41.5,0.634155,-0.280396,-0.67926,-0.240417
-2.5625,-69.1875,-3.1875,10.15,-0.09,-0.57,178.312,84.4375,41.5,0.630066,-0.283386,-0.686218,-0.238037
-7.3125,-63.25,-1.0625,10.24,-0.1,-0.81,178.375,83.375,41.625,0.622864,-0.285156,-0.688782,-0.237305
-11.125,-53.75,1.6875,10.16,-0.11,-1.37,178.375,83.375,41.6875,0.620178,-0.286926,-0.690613,-0.236877
-13.625,-41.8125,3.75,10.13,-0.17,-1.57,166.375,82.9375,41.75,0.620178,-0.286926,-0.690613,-0.236877
-14.9375,-27.0625,5.4375,10.01,-0.2,-1.72,166.625,82.6875,41.875,0.618347,-0.288574,-0.691589,-0.236816
-15.5625,-10.125,6.3125,9.88,-0.22,-1.9,166.438,82.5625,42,0.617493,-0.290894,-0.690735,-0.237976
-15.375,9.1875,5.875,9.8,-0.34,-2,165.25,82.9375,42.125,0.619263,-0.291382,-0.688782,-0.239319
-15,30,4.8125,9.79,-0.34,-2.03,178.188,82.9375,42.25,0.621948,-0.29126,-0.68573,-0.241211
-13.875,51,3.1875,9.88,-0.36,-2.1,178.188,83.375,42.375,0.621948,-0.29126,-0.68573,-0.241211
-11.4375,70.4375,1.9375,9.9,-0.35,-2.11,178.188,84.0625,42.5,0.625732,-0.290527,-0.681702,-0.24353
-7.4375,87.5,0.9375,9.93,-0.33,-2.08,178.125,84.8125,42.625,0.630615,-0.287109,-0.671448,-0.248596
-1.5625,101.5,0.0625,9.82,-0.28,-1.95,178.188,86.6875,42.625,0.6427,-0.284424,-0.665588,-0.251038
5.125,111.125,-1.625,9.78,-0.34,-1.66,178.188,86.6875,42.625,0.649475,-0.281128,-0.659485,-0.253357
11.4375,116.75,-2.6875,9.76,-0.59,-0.72,178.188,87.5625,42.5625,0.649475,-0.281128,-0.659485,-0.253357
16.1875,117.5,-3.25,9.34,-0.48,-0.09,178.25,88.1875,42.5,0.656311,-0.277527,-0.653442,-0.255432
18.25,105.688,-6.4375,10.01,-0.4,0.79,1.625,88.1875,42.4375,0.662415,-0.27063,-0.644287,-0.258606
18,79.5,-9.5625,8.86,-0.43,1.43,1.4375,87.5625,42.375,0.669922,-0.268066,-0.641846,-0.259521
15.25,52.75,-9.25,9.13,-0.07,1.88,1.375,87.5625,42.3125,0.67157,-0.266357,-0.640686,-0.26001
11.6875,28.5625,-8.5625,9.46,-0.03,1.75,1.375,87.4375,42.3125,0.67157,-0.266357,-0.640686,-0.26001
9.1875,4.875,-5.25,9.13,0.19,1.5,1.3125,87.375,42.25,0.671936,-0.265442,-0.640686,-0.259949
6.0625,-20.125,-1.0625,9.51,0.1,1.61,1.3125,87.5625,42.1875,0.66864,-0.266602,-0.64447,-0.257812
1.875,-44.75,4.6875,9.92,0.14,1.24,1.375,87.875,42.125,0.665222,-0.268799,-0.647949,-0.255798
-2.1875,-66.75,11.6875,10.42,0.22,1.35,1.625,88.1875,42,0.661194,-0.271545,-0.651794,-0.253479
-5.375,-76.4375,14.5,9.87,0.28,0.48,1.625,88.3125,41.9375,0.661194,-0.271545,-0.651794,-0.253479
-8.6875,-83.5625,11.6875,9.64,-0.25,-0.33,178.188,88.125,41.875,0.656616,-0.274475,-0.655945,-0.251404
-9.0625,-87.125,10.125,9.46,-0.66,-0.66,178.125,87.5625,41.8125,0.651794,-0.277344,-0.664734,-0.247314
-7.4375,-85.75,7.1875,9.6,-0.86,-1.01,178,86.25,41.8125,0.642212,-0.282227,-0.669128,-0.245361
-4.75,-84.5625,4.5625,9.46,-0.58,-0.96,178,86.25,41.8125,0.637573,-0.284058,-0.673401,-0.243591
-2.9375,-80.5625,0.1875,9.77,-0.31,-0.95,178,85.5625,41.8125,0.637573,-0.284058,-0.673401,-0.243591
-2.8125,-73.6875,-3.625,10.18,-0.28,-1.13,178.062,84.9375,41.8125,0.633179,-0.285522,-0.677429,-0.242188
-3.6875,-62.875,-3.25,10.24,-0.14,-1.17,178.062,84.375,41.875,0.629456,-0.286804,-0.683289,-0.240234
-5.75,-49.75,-1.125,10.29,-0.09,-1.3,178.125,83.9375,41.9375,0.624329,-0.289246,-0.684875,-0.239807
-7.9375,-33.3125,1.125,10.23,-0.19,-1.44,178.125,83.625,42,0.624329,-0.290283,-0.685425,-0.239807
-10.1875,-15.6875,3.375,10.13,-0.19,-1.51,178.062,83.5,42.0625,0.62323,-0.290283,-0.685425,-0.239807
-12.1875,4.25,4.6875,10.07,-0.23,-1.61,178.062,83.5,42.125,0.623291,-0.291138,-0.684814,-0.240417
-13.5,24.6875,5.25,10.01,-0.3,-1.69,178,83.6875,42.25,0.624451,-0.291626,-0.683105,-0.241516
-13.5625,45.0625,5,9.91,-0.36,-1.76,177.938,84.125,42.375,0.63031,-0.291321,-0.676514,-0.245239
-12.6875,65,4.125,9.87,-0.37,-1.77,177.938,84.6875,42.5,0.634827,-0.290344,-0.671814,-0.247742
-10.8125,82.6875,2.6875,9.74,-0.36,-1.71,177.938,85.375,42.625,0.634827,-0.290344,-0.671814,-0.247742
-7.75,98.0625,0.125,9.66,-0.33,-1.66,177.938,86.25,42.75,0.640198,-0.288696,-0.666382,-0.25061
-3.25,109.625,-2.9375,9.88,-0.58,-1.26,177.938,87.0625,42.8125,0.646179,-0.286377,-0.6604,-0.256592
1.375,117.062,-4.75,9.81,-0.62,-0.94,178,87.8125,42.875,0.658997,-0.280273,-0.64801,-0.259399
5.75,116.188,-6.875,9.62,-0.49,-0.36,1.875,88.0625,42.9375,0.658997,-0.276917,-0.642761,-0.261902
9.3125,101.5,-10.25,8.82,-0.24,1.26,1.75,87.8125,43,0.664551,-0.276917,-0.642761,-0.261902
10.3125,77.25,-9.5625,8.87,-0.1,1.65,1.6875,87.375,43,0.668762,-0.274109,-0.638855,-0.263672
7.9375,56,-7.4375,9.33,-0.2,1.73,1.625,87,43,0.671753,-0.272034,-0.634216,-0.265747
