Gyro_x,Gyro_y,Gyro_z,Acc_x,Acc_y,Acc_z,Mag_x,Mag_y,Mag_z,Euler_x,Euler_y,Euler_z,Quat_0,Quat_1,Quat_2,Quat_3
0.4375,1.875,0,-0.32,0.02,9.54,19.5625,21.375,-69.1875,0,0,359.938,1,0,0.000366211,0.000366211
0.3125,0.75,0.0625,-0.36,0.05,9.62,19.5625,21.375,-69.1875,0,0,359.938,1,0,0.000366211,0.000366211
0.0625,-0.1875,-0.0625,-0.33,0.11,9.53,20,21.75,-70.375,0,0,359.938,1,0,0.000366211,0.000366211
-0.5,-1.75,0.125,-0.24,-0.06,9.56,20,21.75,-70.375,0,-1.6875,359.938,0.999878,0.000305176,0.0151367,0.000366211
-0.8125,-2.25,0.125,-0.23,-0.12,9.56,20,21.75,-70.375,0,-1.6875,359.938,0.999878,0.000244141,0.0148926,0.000366211
-0.3125,-1.6875,0.0625,-0.19,-0.16,9.48,20,21.75,-70.375,0,-1.6875,359.938,0.999878,0.000244141,0.0147705,0.000366211
0.4375,-1.4375,0.125,-0.13,-0.09,9.48,20,21.75,-70.375,0,-1.625,359.938,0.999878,0.000183105,0.0146484,0.000366211
0.625,-0.9375,-0.125,-0.12,0.04,9.66,20,22.1875,-68,0,-1.625,359.938,0.999878,0.000244141,0.0145264,0.000366211
0.0625,0.125,0,-0.11,0,9.64,20,22.1875,-68,0,-1.625,359.938,0.999878,0.000244141,0.0144653,0.000366211
-0.3125,1.8125,-0.125,-0.16,0,9.6,20,22.1875,-68,0,-1.625,359.938,0.999878,0.000244141,0.0145874,0.000366211
0.25,2.875,-0.125,-0.26,-0.03,9.51,20,22.1875,-68,0,-1.6875,359.938,0.999878,0.000244141,0.0148315,0.000366211
0.75,3.0625,-0.0625,-0.36,-0.01,9.54,20,22.1875,-68,0,-1.6875,359.938,0.999878,0.000305176,0.0150757,0.000366211
0.375,1.4375,0,-0.38,0.05,9.61,20,22.1875,-68,0,-1.6875,359.938,0.999878,0.000305176,0.0152588,0.000366211
-0.4375,-0.8125,0.125,-0.39,0,9.57,20,22.1875,-68,0,-1.6875,359.938,0.999878,0.000305176,0.0151367,0.000366211
-0.625,-2.625,0.0625,-0.28,-0.1,9.49,20,22.1875,-68,0,-1.6875,359.938,0.999878,0.000244141,0.0149536,0.000366211
-0.3125,-3,0.125,-0.21,-0.08,9.51,20,22.1875,-68,0,-1.625,359.938,0.999878,0.000244141,0.0147095,0.000366211
0.125,-2.5,0.0625,-0.14,-0.01,9.6,20,22.1875,-68,0,-1.625,359.938,0.999878,0.000244141,0.0144653,0.000366211
0,-1.4375,0.1875,-0.1,0,9.63,19.25,22.1875,-68.75,0,-1.625,359.938,0.999878,0.000244141,0.0143433,0.000366211
-0.125,0.0625,-0.0625,-0.15,0,9.59,19.25,22.1875,-68.75,0,-1.625,359.938,0.999878,0.000244141,0.0142822,0.000366211
0,1.4375,0,-0.18,-0.03,9.55,19.25,22.1875,-68.75,0,-1.625,359.938,0.999878,0.000183105,0.0144043,0.000366211
0.25,2.625,-0.0625,-0.24,-0.04,9.55,19.25,22.1875,-68.75,0,-1.625,359.938,0.999878,0.000183105,0.0146484,0.000366211
0.375,2.375,0,-0.29,-0.02,9.58,19.25,22.1875,-68.75,0,-1.6875,359.938,0.999878,0.000183105,0.0148315,0.000366211
0.1875,0.9375,0,-0.35,0,9.57,19.5625,22.1875,-68,0,-1.6875,359.938,0.999878,0.000183105,0.0148926,0.000366211
-0.1875,-0.625,-0.0625,-0.33,-0.01,9.59,19.5625,22.1875,-68,0,-1.6875,359.938,0.999878,0.000183105,0.0148315,0.000366211
-0.25,-1.8125,-0.125,-0.29,-0.01,9.57,19.5625,22.1875,-68,0,-1.625,359.938,0.999878,0.000183105,0.0147095,0.000366211
-0.25,-2.125,0,-0.24,-0.02,9.56,19.5625,22.1875,-68,0,-1.625,359.938,0.999878,0.000183105,0.0145264,0.000366211
-0.0625,-1.9375,0,-0.2,-0.02,9.6,19.5625,22.1875,-68,0,-1.625,359.938,0.999878,0.000183105,0.0143433,0.000366211
0,-0.9375,0.1875,-0.16,0,9.59,18.875,22.5625,-68.375,0,-1.625,359.938,0.999878,0.000183105,0.0142822,0.000366211
0,0.1875,0,-0.15,-0.01,9.6,18.875,22.5625,-68.375,0,-1.625,359.938,0.999878,0.000183105,0.0142212,0.000366211
-0.0625,1.125,-0.0625,-0.24,-0.04,9.52,18.875,22.5625,-68.375,0,-1.625,359.938,0.999878,0.000183105,0.0143433,0.000366211
0,1.375,0.0625,-0.26,-0.05,9.55,18.875,22.5625,-68.375,0,-1.625,359.938,0.999878,0.000183105,0.0144653,0.000366211
0.25,1.125,-0.0625,-0.3,-0.05,9.53,18.875,22.5625,-68.375,0,-1.625,359.938,0.999878,0.000183105,0.0145264,0.000366211
0.125,0.3125,-0.0625,-0.3,-0.02,9.52,19.25,21.75,-68.375,0,-1.625,359.938,0.999878,0.000183105,0.0145264,0.000366211
-0.0625,-0.625,-0.0625,-0.25,-0.01,9.58,19.25,21.75,-68.375,0,-1.625,359.938,0.999878,0.000183105,0.0144653,0.000366211
-0.1875,-1.1875,0,-0.24,-0.01,9.56,19.25,21.75,-68.375,0,-1.625,359.938,0.999878,0.000183105,0.0144043,0.000366211
-0.125,-1.25,0,-0.21,-0.01,9.6,19.25,21.75,-68.375,0,-1.625,359.938,0.999878,0.000183105,0.0142822,0.000366211
0,-0.6875,0,-0.19,-0.02,9.53,19.25,21.75,-68.375,0,-1.625,359.938,0.999878,0.000183105,0.0142212,0.000366211
0.0625,0.1875,0,-0.2,-0.01,9.58,19.5625,21.375,-68,0,-1.625,359.938,0.999878,0.000183105,0.0142212,0.000366211
0.0625,0.4375,0,-0.21,0,9.58,19.5625,21.375,-68,0,-1.625,359.938,0.999878,0.000183105,0.0142212,0.000366211
-0.0625,0.5,0,-0.23,-0.01,9.56,19.5625,21.375,-68,0,-1.625,359.938,0.999878,0.000183105,0.0142212,0.000366211
-0.0625,0.625,0,-0.27,-0.02,9.54,19.5625,21.375,-68,0,-1.625,359.938,0.999878,0.000183105,0.0142212,0.000366211
0.1875,0.25,-0.0625,-0.28,-0.02,9.55,19.5625,21.375,-68,0,-1.625,359.938,0.999878,0.000183105,0.0142212,0.000366211
0.0625,0,0.0625,-0.26,-0.02,9.55,19.25,21.75,-68,0,-1.625,359.938,0.999878,0.000183105,0.0142212,0.000366211
0.0625,-0.4375,0.0625,-0.27,0,9.56,19.25,21.75,-68,0,-1.625,359.938,0.999878,0.000183105,0.0142212,0.000366211
-0.1875,-0.4375,-0.125,-0.23,-0.02,9.55,19.25,21.75,-68,0,-1.625,359.938,0.999878,0.000183105,0.0142212,0.000366211
-0.0625,-0.1875,0.0625,-0.22,-0.02,9.56,19.25,21.75,-68,0,-1.625,359.938,0.999878,0.000183105,0.0142212,0.000366211
0,-0.0625,0.0625,-0.22,-0.01,9.54,19.25,21.75,-68,0,-1.625,359.938,0.999878,0.000183105,0.0142212,0.000366211
-0.0625,0.0625,0.125,-0.22,-0.01,9.56,19.25,22.875,-67.5625,0,-1.625,359.938,0.999878,0.00012207,0.0142212,0.000366211
0,-0.0625,-0.0625,-0.23,-0.03,9.55,19.25,22.875,-67.5625,0,-1.625,359.938,0.999878,0.00012207,0.0142212,0.000366211
-0.0625,-0.0625,0.0625,-0.24,-0.02,9.55,19.25,22.875,-67.5625,0,-1.625,359.938,0.999878,0.00012207,0.0142212,0.000366211
-0.0625,0,0.0625,-0.23,-0.05,9.56,19.25,22.875,-67.5625,0,-1.625,359.938,0.999878,0.00012207,0.0142212,0.000366211
0,-0.0625,-0.0625,-0.23,-0.03,9.56,19.25,22.875,-67.5625,0,-1.625,359.938,0.999878,0.00012207,0.0142212,0.000366211
0.0625,-0.25,0.0625,-0.22,-0.01,9.57,19.5625,21.75,-66.75,0,-1.625,359.938,0.999878,0.00012207,0.0142212,0.000366211
0,-0.1875,0,-0.23,-0.01,9.56,19.5625,21.75,-66.75,0,-1.625,359.938,0.999878,0.00012207,0.0142212,0.000366211
0,0.0625,-0.0625,-0.23,-0.01,9.54,19.5625,21.75,-66.75,0,-1.625,359.938,0.999878,0.00012207,0.0142212,0.000366211
0.0625,0.3125,-0.0625,-0.24,-0.02,9.56,19.5625,21.75,-66.75,0,-1.625,359.938,0.999878,0.00012207,0.0142212,0.000366211
0.0625,0.3125,0.125,-0.27,-0.01,9.56,19.5625,21.75,-66.75,0,-1.625,359.938,0.999878,0.00012207,0.0142212,0.000366211
0,0.1875,0.0625,-0.28,0,9.56,20.75,21.75,-68,0,-1.625,359.938,0.999878,0.00012207,0.0142212,0.000366211
-0.125,-0.0625,0,-0.26,-0.01,9.55,20.75,21.75,-68,0,-1.625,359.938,0.999878,0.00012207,0.0142212,0.000366211
0,-0.4375,0,-0.24,-0.04,9.56,20.75,21.75,-68,0,-1.625,359.938,0.999878,0.00012207,0.0142212,0.000366211
-0.25,-0.5,-0.0625,-0.23,-0.03,9.54,20.75,21.75,-68,0,-1.625,359.938,0.999878,0.00012207,0.0142212,0.000366211
-0.0625,-0.75,0.0625,-0.22,-0.02,9.55,20.75,21.75,-68,0,-1.5625,359.938,0.999878,0.00012207,0.0141602,0.000366211
-0.125,-0.5625,0.125,-0.22,-0.06,9.59,20,21.375,-67.5625,0,-1.5625,359.938,0.999878,0.00012207,0.0141602,0.000366211
-0.0625,-0.1875,-0.0625,-0.2,-0.02,9.57,20,21.375,-67.5625,0,-1.5625,359.938,0.999878,0.00012207,0.0140991,0.000366211
0.125,0.125,0.0625,-0.22,-0.03,9.56,20,21.375,-67.5625,0,-1.5625,359.938,0.999878,0.00012207,0.0140991,0.000366211
0.0625,0.4375,0,-0.23,0,9.56,20,21.375,-67.5625,0,-1.5625,359.938,0.999878,0.00012207,0.0140991,0.000366211
0.125,0.6875,-0.0625,-0.26,-0.02,9.55,20,21.375,-67.5625,0,-1.5625,359.938,0.999878,0.00012207,0.0141602,0.000366211
0,0.625,-0.25,-0.26,0,9.54,19.5625,21.0625,-67.5625,0,-1.625,359.938,0.999878,0.00012207,0.0142212,0.000366211
-0.125,0.3125,-0.125,-0.24,-0.03,9.56,19.5625,21.0625,-67.5625,0,-1.625,359.938,0.999878,0.00012207,0.0142212,0.000366211
-0.0625,-0.0625,-0.0625,-0.25,-0.02,9.55,19.5625,21.0625,-67.5625,0,-1.625,359.938,0.999878,0.00012207,0.0142212,0.000366211
-0.0625,-0.5,0,-0.26,-0.01,9.59,19.5625,21.0625,-67.5625,0,-1.625,359.938,0.999878,0.00012207,0.0142212,0.000366211
-0.125,-0.625,-0.0625,-0.28,0.02,9.64,19.5625,21.0625,-67.5625,0,-1.5625,359.938,0.999878,0.00012207,0.0141602,0.000366211
-0.625,-0.6875,-0.375,-0.26,0.05,9.66,19.5625,22.5625,-66.375,0,-1.5625,359.938,0.999878,6.10352e-05,0.0140991,0.000366211
-1.3125,-0.3125,-1.1875,-0.34,0.05,9.64,19.5625,22.5625,-66.375,0,-1.5625,359.938,0.999878,-6.10352e-05,0.0140991,0.000244141
-1.8125,-1.3125,-1.875,-0.24,-0.11,9.49,19.5625,22.5625,-66.375,0,-1.5625,359.938,0.999878,-0.000244141,0.0139771,0.00012207
-1.375,-2.125,-1.8125,-0.1,-0.14,9.45,19.5625,22.5625,-66.375,0,-1.5625,0,0.999878,-0.000366211,0.0137939,-6.10352e-05
-0.625,-2.3125,-0.9375,-0.12,-0.09,9.51,19.5625,22.5625,-66.375,0,-1.5,0,0.999878,-0.000427246,0.0136108,-0.00012207
0.1875,-2.0625,-0.375,-0.31,0.06,9.52,19.5625,22.5625,-67.5625,0,-1.5,0,0.999939,-0.000427246,0.0134277,-0.00012207
-0.5625,-1.25,-1.4375,0.31,0,9.6,19.5625,22.5625,-67.5625,0,-1.5,0,0.999939,-0.000427246,0.0133057,-0.000244141
-1.0625,2.375,-0.8125,0.5,-0.17,9.52,19.5625,22.5625,-67.5625,0,-1.5,0,0.999939,-0.000549316,0.0134888,-0.000305176
-0.0625,7.75,1.625,-0.05,-0.26,9.42,19.5625,22.5625,-67.5625,0,-1.5625,0,0.999878,-0.000549316,0.0141602,-0.000183105
2.5625,11.1875,0.875,-0.55,-0.24,9.28,19.5625,22.5625,-67.5625,0,-1.6875,0,0.999878,-0.000305176,0.0151367,-0.00012207
5,11.5625,-1.9375,-0.21,0.11,9.72,11.6875,13.375,-40,0,-1.8125,0,0.999878,0.00012207,0.0161133,-0.000244141
4.6875,10.8125,-2.5625,0.12,0.13,9.87,11.6875,13.375,-40,0,-1.9375,0,0.999878,0.000488281,0.0170288,-0.000488281
2.5,11.125,0.25,0.12,-0.04,9.68,11.6875,13.375,-40,-0.0625,-2,0,0.999817,0.000732422,0.0179443,-0.000488281
2.1875,12.0625,3,-0.1,-0.29,9.38,11.6875,13.375,-40,-0.0625,-2.125,0,0.999817,0.000915527,0.0189819,-0.000244141
4.9375,13.375,3.75,-0.17,-0.19,9.42,11.6875,13.375,-40,-0.125,-2.25,359.938,0.999817,0.0012207,0.0198975,6.10352e-05
8.3125,17.375,2.4375,0.16,0,9.86,11.5625,13,-40,-0.1875,-2.375,359.938,0.999756,0.00183105,0.0210571,0.000244141
9.8125,27.125,0.1875,0.43,0.15,9.93,11.5625,13,-40,-0.25,-2.5625,359.938,0.999756,0.00262451,0.0228271,0.000244141
10.0625,41.125,-2.4375,0.32,0.24,10.43,11.5625,13,-40,-0.375,-3,359.938,0.999634,0.003479,0.0263062,0
8.625,55.6875,-5,0.19,-0.04,10.18,11.5625,13,-40,-0.4375,-3.5,0,0.999512,0.00421143,0.0310059,-0.000427246
8.6875,67.5625,-6.75,-0.07,-0.47,9.78,11.5625,13,-40,-0.5,-4.1875,0.0625,0.999329,0.00494385,0.0366821,-0.000976562
11.125,75.5625,-9.875,-0.51,-0.54,9.27,11.875,13.375,-40.375,-0.625,-4.9375,0.1875,0.999023,0.00585938,0.0430908,-0.00183105
13.5625,71.9375,-16,-1.28,-0.21,9.64,11.875,13.375,-40.375,-0.75,-5.625,0.3125,0.998779,0.00695801,0.0491943,-0.00317383
15.25,67.4375,-26.1875,-0.66,-0.23,9.81,11.875,13.375,-40.375,-0.875,-6.25,0.5625,0.998474,0.00811768,0.0548706,-0.00543213
16.625,62.625,-35.4375,-0.07,-0.33,9.94,11.875,13.375,-40.375,-1,-6.875,0.9375,0.998108,0.00939941,0.0601807,-0.00842285
18.1875,53.625,-39.625,0.25,-0.22,10.3,11.875,13.375,-40.375,-1.125,-7.375,1.3125,0.997803,0.0108032,0.0646973,-0.0118408
20.25,43.75,-39.25,0.44,0.01,11.7,12.6875,13.375,-38.1875,-1.25,-7.8125,1.6875,0.997437,0.0123291,0.0684204,-0.0151978
21.5625,39.8125,-36.4375,0.42,-0.19,12.23,12.6875,13.375,-38.1875,-1.4375,-8.25,2.0625,0.997131,0.0139771,0.0717773,-0.0183716
21.25,43.5625,-32.75,0.25,-0.54,12.62,12.6875,13.375,-38.1875,-1.5625,-8.6875,2.4375,0.996826,0.015625,0.0754395,-0.0211792
18.625,53,-28.9375,-0.13,-0.84,12.96,12.6875,13.375,-38.1875,-1.75,-9.1875,2.6875,0.996399,0.0171509,0.0799561,-0.0236816
13.625,61.5625,-25.6875,-0.91,-1.07,13.72,12.6875,13.375,-38.1875,-1.8125,-9.8125,2.9375,0.99585,0.0182495,0.085144,-0.0258789
6.625,66.375,-23.75,-0.96,-0.9,14.04,14.25,14,-36.6875,-1.875,-10.4375,3.1875,0.9953,0.0187378,0.0907593,-0.027832
-2.1875,70.75,-23.4375,-0.93,-0.73,14.34,14.25,14,-36.6875,-1.8125,-11.125,3.375,0.99469,0.0185547,0.0967407,-0.0296631
-12.75,78.625,-25.5,-1.1,-0.58,14.45,14.25,14,-36.6875,-1.625,-11.875,3.625,0.993958,0.0174561,0.103394,-0.0315552
-24.5625,87.625,-29.8125,-1.7,-0.38,14.53,14.25,14,-36.6875,-1.3125,-12.75,3.875,0.993164,0.0153809,0.11084,-0.0337524
-37.5,95,-35.5625,-1.94,-0.23,14.59,14.25,14,-36.6875,-0.875,-13.6875,4.125,0.992188,0.012146,0.118958,-0.0362549
-51,100.25,-42.4375,-2.12,-0.22,14.65,15.75,14.875,-34.1875,-0.3125,-14.625,4.5,0.991028,0.00775146,0.127563,-0.0391846
-65.125,101.312,-50.25,-2.15,-0.56,14.84,15.75,14.875,-34.1875,0.4375,-15.625,4.875,0.989746,0.00213623,0.136292,-0.0426025
-78.9375,99.375,-59.3125,-2.09,-0.9,14.83,15.75,14.875,-34.1875,1.375,-16.5625,5.375,0.988342,-0.00482178,0.144897,-0.0466309
-92.8125,97.375,-68.6875,-2.03,-1.14,14.71,15.75,14.875,-34.1875,2.4375,-17.5,5.9375,0.986755,-0.0130005,0.15332,-0.0512695
-106.438,96.8125,-79.0625,-2.08,-1.3,14.65,15.75,14.875,-34.1875,3.75,-18.375,6.5625,0.984924,-0.0224609,0.161804,-0.0565796
-120.125,98.8125,-90.0625,-2.71,-1.31,14.33,18.375,15.75,-30.0625,5.25,-19.3125,7.25,0.982849,-0.0332642,0.17041,-0.0626221
-134.625,102.188,-101.75,-3.24,-1.07,14.19,18.375,15.75,-30.0625,6.9375,-20.1875,8.0625,0.980286,-0.0453491,0.17926,-0.069397
-150.375,105.5,-115.562,-3.66,-0.7,13.95,18.375,15.75,-30.0625,8.875,-21,9,0.977295,-0.0588989,0.188416,-0.0770874
-167.25,110.062,-131.625,-3.95,-0.31,13.68,18.375,15.75,-30.0625,11.0625,-21.875,10.0625,0.973633,-0.0740967,0.197876,-0.0858154
-184.125,122.688,-151.188,-4.23,0.31,13.05,18.375,15.75,-30.0625,13.5,-22.6875,11.25,0.969116,-0.0908203,0.208313,-0.0959473
-200.5,144.062,-174.125,-4.04,0.49,12.43,21.6875,19.0625,-24.1875,16.3125,-23.625,12.75,0.963318,-0.109131,0.220337,-0.107727
-214.812,169.562,-199.188,-4.13,0.45,11.72,21.6875,19.0625,-24.1875,19.4375,-24.5625,14.4375,0.955933,-0.128723,0.234131,-0.12146
-224.812,191.562,-225.875,-4.32,0.34,11.18,21.6875,19.0625,-24.1875,22.875,-25.5,16.4375,0.94696,-0.149292,0.249329,-0.137268
-231.75,201.75,-252,-4.33,0,10.07,21.6875,19.0625,-24.1875,26.625,-26.25,18.75,0.93634,-0.170715,0.264832,-0.155029
-236.25,196.625,-275.5,-4.56,0.04,8.91,21.6875,19.0625,-24.1875,30.5,-26.6875,21.3125,0.924316,-0.192871,0.279358,-0.174255
-239,170.062,-293.125,-3.34,-0.63,9.25,21,25.5625,-16.5625,34.4375,-26.5,24,0.91156,-0.21582,0.291199,-0.194153
-240.75,149.25,-302.688,-2.02,-0.73,7.98,21,25.5625,-16.5625,38.375,-25.9375,26.8125,0.89801,-0.239197,0.300964,-0.214111
-243.25,133.562,-308.375,-1.43,-0.89,7.46,21,25.5625,-16.5625,42.1875,-25,29.625,0.883545,-0.262878,0.309021,-0.233887
-244.688,121.312,-309.188,-1.53,-0.79,6.77,21,25.5625,-16.5625,45.9375,-23.75,32.4375,0.868347,-0.286682,0.315857,-0.253113
-245.375,105.375,-309.312,-1.69,-0.63,5.99,21,25.5625,-16.5625,49.5,-22.25,35.3125,0.852478,-0.310486,0.321167,-0.271606
-244.312,84.1875,-310.875,-2.24,-0.3,4,15.75,33.1875,-8.1875,52.8125,-20.375,38.125,0.836121,-0.334412,0.324524,-0.289429
-240.812,60.5625,-314.875,-2.26,-0.25,3.05,15.75,33.1875,-8.1875,55.9375,-18.25,41,0.819519,-0.358337,0.325562,-0.30658
-236.625,39.9375,-320.062,-2,-0.43,2.24,15.75,33.1875,-8.1875,58.875,-15.875,43.875,0.80249,-0.382263,0.324585,-0.323242
-232,24.0625,-322.625,-1.8,-0.71,1.47,15.75,33.1875,-8.1875,61.5625,-13.25,46.75,0.785095,-0.405945,0.32196,-0.339355
-228.625,8.5,-320.125,-0.49,-1.17,0.42,15.75,33.1875,-8.1875,64.0625,-10.5625,49.5625,0.767395,-0.429321,0.317932,-0.354492
-225.5,-5.8125,-310.938,0.44,-1.23,0.03,6.5625,35.1875,0,66.4375,-7.8125,52.25,0.749695,-0.452271,0.312866,-0.368164
-221.562,-16.125,-296.062,1.13,-1.01,-0.35,6.5625,35.1875,0,68.6875,-5.0625,54.875,0.732117,-0.474365,0.307312,-0.380249
-214.375,-21.6875,-279.5,1.53,-0.86,-0.58,6.5625,35.1875,0,70.8125,-2.5,57.3125,0.714783,-0.495361,0.301514,-0.39093
-202.688,-19.875,-264.688,2.06,-1.03,-0.19,6.5625,35.1875,0,72.8125,0,59.6875,0.697754,-0.514771,0.295776,-0.400757
-187.875,-8.875,-254,2.46,-1.32,0.32,6.5625,35.1875,0,74.625,2.3125,62.125,0.680969,-0.532349,0.290466,-0.410522
-171.688,11.4375,-245.25,2.77,-1.44,0.72,-2.25,34.0625,6.375,76.25,4.625,64.6875,0.664246,-0.547668,0.28595,-0.420776
-157.312,36.125,-236.125,2.47,-1.89,-0.09,-2.25,34.0625,6.375,77.6875,6.75,67.375,0.647522,-0.56073,0.282593,-0.431763
-145.25,54.3125,-224.938,1.12,-2.54,-2.42,-2.25,34.0625,6.375,78.9375,8.8125,70.125,0.630981,-0.571899,0.280151,-0.443054
-133.75,44.625,-212.688,0.16,-3.74,-5.62,-2.25,34.0625,6.375,80.125,10.75,72.75,0.615356,-0.582275,0.277161,-0.453308
-115.688,-0.0625,-201.25,0.23,-4.66,-7.12,-2.25,34.0625,6.375,81.1875,12.625,74.875,0.601868,-0.592896,0.271667,-0.460938
-90,-42.5,-191.812,1.78,-3.29,-3.52,-7.25,30.375,12.1875,82.0625,14.5625,76.5625,0.590759,-0.603394,0.263367,-0.466431
-68,-50.1875,-188.875,1.6,-2.36,-2.19,-7.25,30.375,12.1875,82.8125,16.4375,78.125,0.580872,-0.612915,0.253845,-0.47168
-57.125,-41,-192.125,1.34,-1.9,-1.65,-7.25,30.375,12.1875,83.375,18.3125,79.8125,0.571045,-0.621338,0.244141,-0.477722
-55.0625,-36.875,-197.375,1.57,-1.84,-1.69,-7.25,30.375,12.1875,84,20.25,81.5625,0.560852,-0.629517,0.234192,-0.48407
-55.6875,-37.375,-201.25,4.08,-2.59,-2.5,-7.25,30.375,12.1875,84.5625,22.25,83.375,0.550293,-0.637512,0.223938,-0.490479
-53.25,-32.4375,-200.688,5.77,-3.01,-2.39,-10.875,25.75,14.5625,85.1875,24.1875,85.25,0.539673,-0.645081,0.213806,-0.496948
-47.125,-18.1875,-190.5,7.09,-3.04,-2.58,-10.875,25.75,14.5625,85.625,26.0625,87.125,0.529358,-0.651306,0.204529,-0.503723
-41.5,-15.5625,-172.188,6.63,-3.16,-1.11,-10.875,25.75,14.5625,86.0625,27.75,88.8125,0.519958,-0.656738,0.196106,-0.509766
-39.5625,-26.75,-147.375,8.78,-3.72,-1.08,-10.875,25.75,14.5625,86.5,29.1875,90.25,0.51178,-0.662048,0.188477,-0.514038
-41.1875,-48.25,-116.125,9.17,-4.26,-1.22,-10.875,25.75,14.5625,87.1875,30.3125,91.125,0.505188,-0.667725,0.181641,-0.515686
-43.125,-63.6875,-82.25,8.37,-4.84,-2.65,-14.0625,22.1875,16.0625,87.9375,31.125,91.625,0.500122,-0.673584,0.176147,-0.514954
-37.25,-55.0625,-59.25,-2.18,-1.57,-4.41,-14.0625,22.1875,16.0625,88.625,31.75,91.9375,0.496216,-0.678406,0.172058,-0.513733
-33.625,-27.25,-89.3125,1.26,-4.55,-7.78,-14.0625,22.1875,16.0625,89.0625,32.5625,92.75,0.490784,-0.682251,0.167297,-0.515381
-36.25,10.0625,-172.625,4.76,-5.52,-8.37,-14.0625,22.1875,16.0625,89.375,34.25,94.6875,0.481018,-0.685669,0.159302,-0.522583
-7.3125,68.0625,-225.125,7.31,-6.93,-7.24,-14.0625,22.1875,16.0625,88.9375,36.4375,97.4375,0.469666,-0.685852,0.149353,-0.535461
-7.3125,75.75,-242.938,6.16,-5.21,-3.5,-14.5625,21.0625,19.1875,88.125,38.75,100.25,0.458679,-0.684631,0.13739,-0.549622
18.4375,32.4375,-258.125,7.68,-4.54,-2.88,-14.5625,21.0625,19.1875,87.5625,41.25,102.875,0.44751,-0.685059,0.12262,-0.561584
17.3125,-20.25,-278.062,9.53,-4.54,-2.69,-14.5625,21.0625,19.1875,87.5,43.9375,105.312,0.435425,-0.688049,0.104919,-0.570984
14.9375,-43.5625,-290.625,11.05,-5.07,-3.14,-14.5625,21.0625,19.1875,87.625,46.75,107.75,0.422546,-0.691956,0.0856323,-0.579102
17.3125,-43.125,-288.688,14.01,-6.61,-4.61,-14.5625,21.0625,19.1875,87.8125,49.5625,110.125,0.409607,-0.695312,0.0663452,-0.586792
17.3125,-27.25,-269.5,15.01,-7.17,-4.36,-18.875,18.0625,18.375,87.75,52.1875,112.375,0.397827,-0.697083,0.0483398,-0.594543
25.625,-2.125,-238.625,15.57,-7.32,-3.8,-18.875,18.0625,18.375,87.3125,54.5,114.438,0.387878,-0.696838,0.0324097,-0.602417
41.875,24.1875,-201.688,15.86,-7.3,-3.7,-18.875,18.0625,18.375,86.4375,56.4375,116.188,0.379944,-0.694702,0.019165,-0.610474
46.1875,45.9375,-165.562,15.29,-7.46,-3.38,-18.875,18.0625,18.375,85.125,58,117.625,0.374023,-0.69104,0.00854492,-0.61853
48.375,54.9375,-135.25,15.32,-7.98,-3.61,-18.875,18.0625,18.375,83.5625,59.25,118.812,0.36969,-0.686646,-0.00012207,-0.625977
48.375,57.3125,-105.375,14.29,-7.81,-2.99,-21.5,13.0625,19.5,81.875,60.1875,119.688,0.367188,-0.681885,-0.00726318,-0.632568
53.3125,56.5,-80.625,12.77,-7.17,-3.31,-21.5,13.0625,19.5,80.1875,60.875,120.312,0.366089,-0.677063,-0.0131226,-0.638245
55.5,55.1875,-70.375,10.22,-6.5,-3.26,-21.5,13.0625,19.5,78.4375,61.4375,120.75,0.36554,-0.672302,-0.0184326,-0.643494
57.5625,49.9375,-75.5625,10.52,-6.67,-3.26,-21.5,13.0625,19.5,76.6875,62.0625,121.25,0.364746,-0.667664,-0.024353,-0.64856
63.0625,48.625,-89.375,10.91,-6.43,-2.97,-21.5,13.0625,19.5,74.8125,62.8125,121.812,0.363525,-0.662842,-0.031311,-0.65387
67.6875,35.5625,-102.188,12.24,-6.15,-2.13,-22.0625,13.75,18.75,72.9375,63.625,122.438,0.361694,-0.658447,-0.0396729,-0.658813
67.6875,35.5625,-110.125,12.87,-5.89,-1.95,-22.0625,13.75,18.75,71.5,64.625,123,0.359436,-0.65564,-0.0494995,-0.66217
69.4375,-23.25,-113.812,13.44,-5.73,-2.34,-22.0625,13.75,18.75,70.5625,65.75,123.438,0.356812,-0.654297,-0.0604248,-0.664001
72.75,-37.5,-116.125,14.23,-5.75,-2.79,-22.0625,13.75,18.75,69.75,66.9375,123.875,0.354065,-0.653625,-0.0720215,-0.665039
82.9375,-37.6875,-114.562,14.92,-5.32,-4.32,-22.0625,13.75,18.75,68.8125,68.125,124.25,0.35199,-0.652466,-0.0841675,-0.665833
102.812,-30.75,-109.625,15.92,-5.71,-4.29,-23.5625,11.5,18.25,67.5,69.1875,124.375,0.351257,-0.65033,-0.0968628,-0.666565
102.812,-30.75,-101.125,16.89,-5.86,-3.03,-23.5625,11.5,18.25,65.5625,70.1875,124.25,0.352722,-0.646301,-0.110413,-0.667603
160.625,3.0625,-83.5625,17.15,-5.51,-2,-23.5625,11.5,18.25,62.9375,70.875,123.812,0.35675,-0.640503,-0.123901,-0.66864
173.125,17.6875,-58.8125,17.53,-5.15,1.17,-23.5625,11.5,18.25,60,71.3125,123.062,0.362915,-0.633606,-0.136353,-0.669495
168.875,28.5625,-30.625,17.6,-5.24,2.18,-23.5625,11.5,18.25,57.1875,71.375,122.062,0.370544,-0.626404,-0.146606,-0.669983
153.25,38.625,-1.125,17.5,-5.15,2.69,-24.0625,11.0625,17.6875,54.8125,71.1875,121,0.379028,-0.619324,-0.154114,-0.670105
153.25,38.625,27.875,16.77,-4.73,2.75,-24.0625,11.0625,17.6875,52.875,70.6875,119.75,0.388367,-0.61261,-0.158875,-0.6698
126.688,55.625,53.6875,16.41,-4.61,2.69,-24.0625,11.0625,17.6875,51.3125,70,118.375,0.398682,-0.605957,-0.161438,-0.669189
124.688,64.1875,75.875,16.05,-4.57,2.74,-24.0625,11.0625,17.6875,50.0625,69,116.875,0.410156,-0.599121,-0.162415,-0.668152
128.375,68.8125,96.5625,15.93,-4.65,2.92,-24.0625,11.0625,17.6875,49.0625,67.875,115.188,0.423035,-0.592041,-0.162415,-0.666443
134.25,70.6875,118.312,15.88,-4.53,4.45,-25,13.5625,14.6875,48.375,66.5625,113.188,0.437317,-0.584839,-0.161499,-0.663818
134.25,70.6875,118.312,15.65,-4.41,5.49,-25,13.5625,14.6875,48,65.0625,111.062,0.453003,-0.57782,-0.159607,-0.659912
134.875,55.875,171,15.4,-4.21,6.48,-25,13.5625,14.6875,48.1875,63.5,108.625,0.469788,-0.571716,-0.156616,-0.654114
125.25,37.75,199.438,15.08,-4.06,7.46,-25,13.5625,14.6875,48.875,61.8125,105.938,0.487244,-0.5672,-0.152344,-0.64624
110.812,20.125,225.5,14.6,-4.29,8.98,-25,13.5625,14.6875,50.125,60,103.125,0.505005,-0.564331,-0.146729,-0.636353
95.125,10.4375,249.438,14.76,-4.86,9.79,-23.0625,17.1875,11.75,51.625,58.0625,100.125,0.522949,-0.562622,-0.139465,-0.624878
95.125,10.4375,249.438,14.48,-5.36,10.61,-23.0625,17.1875,11.75,53.25,55.9375,97.0625,0.540955,-0.561829,-0.130249,-0.612122
56.25,8.375,297.375,13.25,-5.57,11.01,-23.0625,17.1875,11.75,55,53.5625,93.875,0.55896,-0.56189,-0.118591,-0.598145
31.75,6.5625,319.062,10.1,-5.93,9.9,-23.0625,17.1875,11.75,56.8125,50.9375,90.625,0.576416,-0.563049,-0.104736,-0.582886
10.625,9.5625,330.188,8.99,-6.21,9.25,-23.0625,17.1875,11.75,58.625,48.1875,87.375,0.593018,-0.564758,-0.0890503,-0.566895
-4.5625,22.0625,331.312,7.81,-6.4,9.25,-19,21.875,8.375,60.25,45.3125,84.3125,0.608582,-0.566223,-0.0718994,-0.551208
-4.5625,22.0625,331.312,5.73,-6.61,11.26,-19,21.875,8.375,61.5625,42.4375,81.375,0.622986,-0.567078,-0.0535889,-0.536194
-32.25,46.75,316.812,4.77,-6.79,11.86,-19,21.875,8.375,62.75,39.5,78.6875,0.635742,-0.567871,-0.0344849,-0.521729
-52.75,47.9375,309.188,3.95,-6.9,12.02,-19,21.875,8.375,64,36.625,76.1875,0.646729,-0.569275,-0.0147705,-0.507385
-73.8125,47.8125,300.938,3.29,-6.93,11.93,-19,21.875,8.375,65.3125,33.75,73.875,0.655945,-0.571472,0.00549316,-0.493164
-92,50.75,290.5,2.28,-6.75,11.75,-12.875,26.5,9,66.625,31,71.6875,0.66333,-0.574097,0.0261841,-0.479309
-92,50.75,290.5,2.28,-6.78,11.45,-12.875,26.5,9,68,28.3125,69.6875,0.669006,-0.577148,0.0471191,-0.466003
-124.625,57,265.5,1.31,-6.88,10.88,-12.875,26.5,9,69.4375,25.75,67.875,0.672913,-0.580688,0.0681763,-0.453125
-140.062,53.8125,255.188,0.83,-6.89,10.32,-12.875,26.5,9,70.9375,23.25,66.1875,0.675293,-0.584961,0.0890503,-0.440308
-152.062,47.875,247.688,0.12,-6.57,9.79,-12.875,26.5,9,72.5,20.8125,64.5,0.676453,-0.589783,0.10968,-0.427246
-161.25,49.3125,241.562,-0.26,-6.33,9.47,-6.6875,29,10.5625,74.1875,18.4375,62.9375,0.676453,-0.594788,0.13031,-0.414307
-167.688,63.125,236.938,-0.58,-6.04,9.17,-6.6875,29,10.5625,75.8125,16.0625,61.5,0.675415,-0.599365,0.151611,-0.401978
-172.312,86.1875,234.188,-0.8,-5.69,8.89,-6.6875,29,10.5625,77.375,13.625,60.1875,0.673279,-0.603088,0.174194,-0.390625
-178,111.562,233.438,-0.57,-5.12,7.54,-6.6875,29,10.5625,78.9375,11.25,59.125,0.670044,-0.605896,0.198242,-0.38031
-185.312,132.75,234.812,-0.53,-4.86,6.44,-6.6875,29,10.5625,80.625,8.75,58.1875,0.665649,-0.607971,0.223633,-0.370544
-191.312,146.625,238.812,-0.69,-4.68,5.18,-1.5,28.5625,15.5,82.3125,6.25,57.3125,0.660278,-0.609375,0.250061,-0.360901
-192.438,153.438,244.375,-1.46,-4.81,3.25,-1.5,28.5625,15.5,84.0625,3.75,56.375,0.654297,-0.609985,0.276917,-0.350952
-187,155.25,249.625,-1.83,-4.89,2.41,-1.5,28.5625,15.5,85.8125,1.1875,55.4375,0.648132,-0.609619,0.303772,-0.340637
-175.938,157.688,255.312,-2.48,-4.72,1.56,-1.5,28.5625,15.5,87.5625,-1.3125,54.375,0.64209,-0.60791,0.330505,-0.330139
-160.062,161.75,259.812,-3.04,-4.38,0.74,-1.5,28.5625,15.5,89.125,-3.875,53.3125,0.636353,-0.604553,0.356934,-0.319702
-137.75,169.75,261.625,-3.31,-4.29,0.27,0.875,25.25,19.375,90.625,-6.375,52.3125,0.630981,-0.599243,0.382935,-0.310059
-111.438,180.5,261.75,-3.45,-3.84,0.57,0.875,25.25,19.375,91.9375,-8.875,51.375,0.626099,-0.591736,0.408569,-0.301514
-87.625,196.375,261.312,-3.79,-3.32,1.19,0.875,25.25,19.375,93.1875,-11.3125,50.6875,0.621338,-0.582153,0.434082,-0.294373
-70.75,217.625,259.188,-3.65,-2.87,1.43,0.875,25.25,19.375,94.375,-13.6875,50.1875,0.616028,-0.570679,0.459778,-0.288757
-61.8125,242.125,255.062,-3.72,-1.96,1.11,0.875,25.25,19.375,95.625,-15.9375,50,0.609619,-0.557861,0.485962,-0.284607
-60.0625,263.812,250,-3.79,-1.63,0.34,3.25,22.25,23.1875,97.0625,-18.0625,50.125,0.601685,-0.544067,0.512573,-0.281555
-61.375,275.25,242.938,-4.09,-1.3,-0.24,3.25,22.25,23.1875,98.6875,-20,50.4375,0.592407,-0.529846,0.538879,-0.279053
-61.375,270.438,232.938,-4.81,-0.97,-0.34,3.25,22.25,23.1875,100.438,-21.8125,50.75,0.58252,-0.515808,0.564087,-0.276489
-63.0625,260,215.688,-5.24,-0.9,-1.75,3.25,22.25,23.1875,102.25,-23.375,51.125,0.572083,-0.502441,0.587524,-0.273987
-65,247.375,192.188,-4.83,-1.18,-2.78,3.25,22.25,23.1875,104.125,-24.625,51.6875,0.56134,-0.490051,0.608887,-0.271973
-53.125,236.5,168.625,-4.46,-1.32,-3.79,2.5,19.6875,24.875,105.875,-25.625,52.375,0.550659,-0.478333,0.628113,-0.270935
-33.9375,228.625,150.188,-3.48,-1.39,-4.58,2.5,19.6875,24.875,107.438,-26.375,53.3125,0.540466,-0.466553,0.645447,-0.271301
-33.9375,225.062,137.562,-3.09,-1.31,-4.4,2.5,19.6875,24.875,108.75,-26.9375,54.4375,0.530823,-0.454224,0.661194,-0.273315
-10,230.5,131.375,-3.26,-1.1,-3.98,2.5,19.6875,24.875,109.938,-27.4375,55.9375,0.521423,-0.440857,0.676086,-0.276978
14.1875,237.625,130.062,-3.52,-0.9,-3.69,2.5,19.6875,24.875,110.938,-27.8125,57.625,0.512024,-0.426208,0.690369,-0.281982
49.9375,240.812,129.125,-4.99,-0.02,-3.86,1.5,17.0625,27.375,111.875,-28.125,59.5625,0.502747,-0.410706,0.704102,-0.287903
61.5,241.25,120.25,-5.5,0,-4.28,1.5,17.0625,27.375,112.688,-28.3125,61.6875,0.493286,-0.394958,0.716797,-0.294739
61.5,239.875,98.875,-5.61,-0.15,-4.86,1.5,17.0625,27.375,113.312,-28.25,64.125,0.483582,-0.379822,0.728088,-0.30304
73.5,235.375,71.75,-5.42,-0.35,-5.1,1.5,17.0625,27.375,113.688,-28,66.875,0.473694,-0.365601,0.737488,-0.31311
90,226.562,44.3125,-4.52,-0.36,-4.87,1.5,17.0625,27.375,113.812,-27.5,70,0.463989,-0.352417,0.744873,-0.325012
108.562,219.375,18.3125,-4.09,-0.24,-4.59,-1.6875,17.5,25.6875,113.625,-26.8125,73.375,0.454346,-0.34021,0.750366,-0.338745
127.062,214.75,-5.3125,-3.68,-0.17,-4.16,-1.6875,17.5,25.6875,113.125,-25.9375,77.0625,0.444641,-0.328796,0.75415,-0.354126
144,211.438,-25.25,-3.13,-0.22,-3.61,-1.6875,17.5,25.6875,112.438,-24.9375,80.9375,0.434692,-0.318054,0.75647,-0.370972
157.938,205.438,-41.0625,-2,-0.43,-3.47,-1.6875,17.5,25.6875,111.625,-23.8125,84.875,0.424622,-0.308044,0.757507,-0.388489
166.375,196.75,-52.75,-1.58,-0.49,-3.7,-1.6875,17.5,25.6875,110.625,-22.625,88.8125,0.414673,-0.298767,0.757385,-0.406372
171.5,186.25,-61.3125,-1.12,-0.64,-3.82,-5.75,20.875,22.0625,109.5,-21.4375,92.6875,0.405029,-0.289978,0.756042,-0.4245
177.875,176.312,-67.5625,-0.49,-0.92,-3.67,-5.75,20.875,22.0625,108.25,-20.3125,96.4375,0.395874,-0.281433,0.753479,-0.443115
189.188,168.625,-71.125,-0.48,-1.09,-3.27,-5.75,20.875,22.0625,106.75,-19.125,100.062,0.387268,-0.272705,0.749512,-0.462463
205.125,159.812,-73.6875,-0.68,-1.17,-2.76,-5.75,20.875,22.0625,105,-18,103.625,0.379272,-0.263733,0.744141,-0.482483
222.938,146.688,-78.3125,-1.25,-0.98,-2.43,-5.75,20.875,22.0625,103.062,-16.9375,107,0.372131,-0.254944,0.737122,-0.503174
239.688,131.25,-88.3125,-0.77,-1.88,-1.07,-9.875,23.0625,16.875,100.875,-15.875,110.25,0.36554,-0.246765,0.728271,-0.524536
255.375,115.938,-102.5,-0.84,-1.91,-0.2,-9.875,23.0625,16.875,98.5625,-14.6875,113.312,0.359375,-0.239563,0.717529,-0.546448
268.938,101.688,-119.375,-0.49,-1.96,0.63,-9.875,23.0625,16.875,96.0625,-13.375,116.312,0.353149,-0.233582,0.7052,-0.568726
276.562,92.625,-140.5,0.03,-2.29,1.41,-9.875,23.0625,16.875,93.5625,-12,119.25,0.346313,-0.229065,0.691467,-0.591187
280,90.125,-161.438,0.65,-2.94,2.45,-9.875,23.0625,16.875,91,-10.375,122.25,0.338257,-0.225647,0.676575,-0.613892
282.312,90.125,-178.812,1.11,-3.31,2.76,-12.5625,25.6875,9.5,88.375,-8.625,125.25,0.32959,-0.223389,0.660522,-0.636536
284.375,82.5,-193.25,1.7,-3.71,2.89,-12.5625,25.6875,9.5,85.6875,-6.8125,128.062,0.32074,-0.222656,0.643127,-0.658691
283.812,41.25,-205.938,2.42,-4.02,2.88,-12.5625,25.6875,9.5,83.0625,-4.875,130.625,0.312195,-0.223816,0.62439,-0.680115
282.188,11.625,-216.688,4.82,-4.07,3.05,-12.5625,25.6875,9.5,80.375,-2.8125,133,0.304321,-0.227051,0.604248,-0.7005
280,-23.625,-224.812,4.58,-4.2,3.61,-12.5625,25.6875,9.5,77.6875,-0.625,135.062,0.297424,-0.232666,0.582581,-0.719727
278.812,-23.625,-229,4.6,-4.73,4.13,-18.25,25.6875,1,75,1.5625,136.875,0.291504,-0.240112,0.559509,-0.737793
279.188,-53.8125,-230.375,5.49,-5.58,6.21,-18.25,25.6875,1,72.3125,3.875,138.5,0.285828,-0.24823,0.535583,-0.754883
277.688,-58.0625,-232.812,6.38,-5.61,8.16,-18.25,25.6875,1,69.625,6.1875,140.188,0.279236,-0.255737,0.511536,-0.771301
274.438,-14.75,-232.562,7.32,-5.74,9.54,-18.25,25.6875,1,66.9375,8.375,142.062,0.270325,-0.260315,0.488586,-0.787659
266.5,41.375,-227.812,8.49,-6,9.12,-18.25,25.6875,1,64.3125,10.1875,144.25,0.25885,-0.26123,0.467896,-0.80365
247.438,41.375,-227.812,10.56,-7.44,7.05,-22.875,21.375,-5.5625,61.875,11.6875,146.562,0.245483,-0.258911,0.449707,-0.818848
222.812,87.25,-216.688,10.62,-7.6,7.7,-22.875,21.375,-5.5625,59.4375,12.8125,148.938,0.231384,-0.253662,0.433411,-0.833252
206.75,156.188,-180.75,10.73,-7.53,8.63,-22.875,21.375,-5.5625,56.9375,13.5,151.188,0.217224,-0.245239,0.418213,-0.847229
202.5,181.375,-158.688,10.99,-7.28,9.47,-22.875,21.375,-5.5625,54.4375,13.75,153.375,0.203491,-0.234131,0.40387,-0.860657
199.125,192.438,-133.875,8.59,-7.32,9.32,-22.875,21.375,-5.5625,52.0625,13.6875,155.312,0.190918,-0.221313,0.390442,-0.872986
191.75,192.438,-133.875,8.59,-7.38,10.4,-25.1875,15.5625,-9.5,49.8125,13.5,156.812,0.181091,-0.209473,0.377502,-0.883667
184.312,166.188,-104.812,9.41,-6.72,11.33,-25.1875,15.5625,-9.5,47.875,13.4375,157.688,0.175415,-0.202454,0.364746,-0.891724
170.438,19.5,-53.75,9.54,-6.51,11.41,-25.1875,15.5625,-9.5,46.25,13.6875,158.125,0.173401,-0.200317,0.352356,-0.897583
155.625,-24.125,-41.625,10.71,-7.78,9.87,-25.1875,15.5625,-9.5,44.8125,14.1875,158.188,0.173401,-0.201233,0.34021,-0.902039
145.938,-43.75,-34.625,10.89,-7.9,9.95,-25.1875,15.5625,-9.5,43.4375,14.6875,158.188,0.174438,-0.203491,0.328064,-0.905823
142.25,-43.75,-34.625,10.89,-7.9,10.75,-26.375,10.75,-15.1875,42.0625,15.1875,158.062,0.175964,-0.205566,0.316101,-0.909302
142,-44.8125,-27.25,11.06,-7.75,11.91,-26.375,10.75,-15.1875,40.75,15.5625,157.938,0.177795,-0.206299,0.304504,-0.91272
139.938,-8.3125,-7.0625,10.86,-6.6,11.74,-26.375,10.75,-15.1875,39.4375,15.625,157.75,0.179749,-0.205139,0.294006,-0.916077
133.312,8.75,8.75,10.85,-6.73,11.39,-26.375,10.75,-15.1875,38.25,15.5,157.5,0.182373,-0.202332,0.284668,-0.919128
123.438,17.4375,27.625,10.77,-7.02,11.06,-26.375,10.75,-15.1875,37.1875,15.25,157.125,0.186035,-0.198547,0.276672,-0.921631
113,17.4375,27.625,10.77,-7.02,11.06,-26.375,8.75,-15.0625,36.375,14.625,156.438,0.1922,-0.193115,0.270569,-0.92334
98.25,29.5,67.3125,9.25,-6.63,10.71,-26.5,8.75,-15.0625,35.5,14,155.75,0.198364,-0.187683,0.264465,-0.924927
98.25,33,78.625,7.94,-5.72,11.1,-26.5,8.75,-15.0625,34.6875,13.3125,155,0.205261,-0.181763,0.258789,-0.926208
95.5625,37.125,81.625,7.48,-5.55,11.54,-26.5,8.75,-15.0625,33.8125,12.5625,154.188,0.212341,-0.175354,0.252991,-0.927429
98.3125,28.3125,81.5625,6.83,-5.62,12.61,-26.5,8.75,-15.0625,32.9375,11.875,153.375,0.219604,-0.169556,0.246826,-0.928467
100.375,28.3125,81.5625,6.83,-5.78,13.44,-26.5,9.5,-15.875,32.1875,11.25,152.5,0.22699,-0.164368,0.240967,-0.929199
94.6875,21.8125,82.5,6.57,-5.97,14.19,-26.5,9.5,-15.875,31.4375,10.625,151.688,0.234436,-0.159241,0.236023,-0.929504
83.5,27.375,92.625,5.85,-6.03,14.86,-26.5,9.5,-15.875,30.9375,9.9375,150.75,0.242004,-0.15387,0.232483,-0.929321
67.5625,28,101.688,4.45,-5.84,15.22,-26.5,9.5,-15.875,30.5625,9.25,149.812,0.250061,-0.148682,0.230591,-0.928528
48.125,21.9375,108.812,3.74,-5.6,14.7,-26.5,9.5,-15.875,30.4375,8.5,148.812,0.258545,-0.144226,0.230103,-0.927063
29.75,21.9375,108.812,3.74,-5.43,14.06,-25,9.375,-17.0625,30.375,7.8125,147.75,0.267273,-0.140625,0.230469,-0.925049
15.9375,13.75,112.312,3.49,-5.45,13.97,-25,9.375,-17.0625,30.4375,7.1875,146.688,0.27594,-0.13739,0.231506,-0.922729
7.25,16.125,110.688,3.43,-5.36,14.67,-25,9.375,-17.0625,30.5625,6.5,145.625,0.284241,-0.133911,0.233154,-0.920288
0.3125,25.375,105.562,2.57,-5.34,15.27,-25,9.375,-17.0625,30.6875,5.75,144.688,0.291809,-0.130127,0.235718,-0.917786
-9.9375,32.875,98.1875,1.9,-5.61,14.94,-25,9.375,-17.0625,31,5,143.812,0.298523,-0.12616,0.23938,-0.915222
-23.1875,32.875,98.1875,1.9,-5.61,14.94,-24.5625,10.875,-17.875,31.375,4.25,143.062,0.304749,-0.122498,0.243652,-0.912537
-31.375,33.25,93.9375,2.1,-8.01,11.65,-24.5625,10.875,-17.875,31.6875,3.5625,142.125,0.311646,-0.11908,0.247437,-0.909668
-26.875,15.5625,115.562,1.71,-8.85,10.2,-24.5625,10.875,-17.875,31.8125,2.8125,141.062,0.320068,-0.115784,0.249878,-0.906494
-11.0625,2.0625,128.875,0.5,-8.15,10.67,-24.5625,10.875,-17.875,31.8125,2.1875,139.812,0.329895,-0.112793,0.250793,-0.903076
4.3125,-11.125,139.125,-0.34,-7.34,12.78,-24.5625,10.875,-17.875,31.75,1.5625,138.438,0.340881,-0.110291,0.250732,-0.899292
14.25,-11.125,139.125,-0.34,-7.34,12.78,-24.5625,10.875,-18.25,31.625,0.9375,137,0.352539,-0.108093,0.250305,-0.895203
16.3125,-18.25,146.5,-1.14,-7.11,13.65,-23.1875,12.375,-18.25,31.5,0.375,135.5,0.36438,-0.10614,0.250061,-0.890747
12.75,-28.4375,151.625,-1.95,-8.1,12.92,-23.1875,12.375,-18.25,31.375,-0.125,133.938,0.376465,-0.104736,0.249756,-0.885986
9.9375,-30.375,149.125,-3.2,-7.94,14.71,-23.1875,12.375,-18.25,31.375,-0.625,132.375,0.388245,-0.10376,0.249817,-0.880981
3.4375,-23,140.125,-3.97,-7.9,15.1,-23.1875,12.375,-18.25,31.4375,-1.125,131,0.399048,-0.102783,0.250854,-0.875916
-7.6875,-23,140.125,-3.97,-7.9,15.06,-21.6875,17.5625,-18.6875,31.625,-1.625,129.688,0.408569,-0.101868,0.253113,-0.870972
-22.5,-14.375,127.438,-3.98,-8.1,15.44,-21.6875,17.5625,-18.6875,31.9375,-2.1875,128.562,0.416931,-0.101135,0.256775,-0.866028
-38.25,2.9375,107.438,-4.27,-7.88,14.87,-21.6875,17.5625,-18.6875,32.4375,-2.75,127.5,0.424194,-0.100525,0.261841,-0.861023
-56.25,9.9375,99.4375,-4.39,-7.82,14.42,-21.6875,17.5625,-18.6875,33.125,-3.375,126.562,0.430603,-0.10022,0.268311,-0.855896
-72.5,15.75,91.1875,-4.55,-7.67,14.38,-21.6875,17.5625,-18.6875,33.875,-4,125.688,0.436096,-0.100098,0.275757,-0.850769
-84.6875,15.75,91.1875,-4.55,-7.67,14.38,-20.1875,18.25,-18.5625,34.75,-4.625,124.938,0.440552,-0.0999756,0.283936,-0.845764
-92.5625,22.5,80.8125,-5.27,-7.87,13.55,-20.1875,18.25,-18.5625,35.625,-5.1875,124.25,0.444275,-0.100403,0.292236,-0.840881
-97.3125,14.75,63.6875,-5.53,-8.45,13.18,-20.1875,18.25,-18.5625,36.5625,-5.6875,123.625,0.447571,-0.101624,0.300598,-0.83606
-102.062,8.3125,55.4375,-5.06,-8.77,12.54,-20.1875,18.25,-18.5625,37.5625,-6.0625,123.062,0.450378,-0.103516,0.308716,-0.83136
-103.875,6.25,50.3125,-4.85,-8.24,13.93,-20.1875,18.25,-18.5625,38.5625,-6.375,122.562,0.452759,-0.105835,0.316895,-0.82666
-106.938,6.25,50.3125,-4.85,-8.24,13.93,-20.1875,18.25,-16.1875,39.625,-6.75,122.062,0.454712,-0.108398,0.3255,-0.821899
-113.625,8.375,45.75,-4.75,-8.26,13.77,-18.375,20.875,-16.1875,40.75,-7.0625,121.625,0.456299,-0.110962,0.334534,-0.817078
-118.312,17.8125,46.375,-3.96,-8.89,12.33,-18.375,20.875,-16.1875,41.8125,-7.5,121.125,0.457886,-0.112854,0.343628,-0.812134
-115.75,25.125,49.875,-4.98,-8.34,12.12,-18.375,20.875,-16.1875,42.875,-8,120.688,0.459534,-0.113892,0.352539,-0.80719
-109.188,25.125,48.6875,-4.99,-8.06,12.07,-18.375,20.875,-16.1875,43.8125,-8.5625,120.25,0.460815,-0.114197,0.361389,-0.80249
-103.75,32.8125,48.6875,-4.99,-8.06,12.07,-16.875,22.6875,-15.375,44.8125,-9.1875,64.3125,0.780457,-0.273315,0.274292,-0.490906
-98.875,41.8125,43.6875,-5.29,-7.69,12.3,-16.875,22.6875,-15.375,45.75,-9.6875,64.0625,0.778564,-0.277283,0.282043,-0.487244
-99.4375,42.4375,24.875,-4.6,-7.24,13.78,-16.875,22.6875,-15.375,46.8125,-10.125,63.875,0.776062,-0.282227,0.289612,-0.483887
-108.875,38.8125,14.1875,-4.36,-6.83,13.85,-16.875,22.6875,-15.375,48.125,-10.5,63.75,0.772644,-0.288696,0.297607,-0.480713
-127.625,37.5625,4.5,-3.92,-6.47,13.57,-16.875,22.6875,-15.375,49.625,-10.75,63.75,0.768066,-0.296631,0.306519,-0.4776
-149.5,41.6875,4.5,-3.92,-6.47,13.57,-16.875,24.5625,-12.1875,51.3125,-11.0625,63.75,0.762512,-0.305481,0.316528,-0.474426
-167.562,52.6875,-1.0625,-2.33,-6.16,12.71,-15.375,24.5625,-12.1875,53.125,-11.5,63.8125,0.756042,-0.314392,0.327942,-0.47113
-180.375,64.75,13.75,-0.82,-6.21,12.13,-15.375,24.5625,-12.1875,55.125,-12,63.8125,0.749329,-0.323303,0.340637,-0.466858
-192.062,74.25,28.25,-1.04,-5.63,11.87,-15.375,24.5625,-12.1875,57.1875,-12.6875,63.6875,0.742432,-0.332214,0.354492,-0.461243
-204.562,80.1875,39.3125,-1.24,-4.79,11.25,-15.375,24.5625,-12.1875,59.4375,-13.4375,63.4375,0.735107,-0.341187,0.369507,-0.454651
-217.75,87.125,39.3125,-1.24,-4.79,11.25,-15.375,24.5625,-12.1875,61.8125,-14.3125,63.4375,0.727051,-0.35022,0.38562,-0.447327
-229.812,97.75,46,-1.38,-4.58,10.77,-15.375,26.875,-10.0625,64.3125,-15.1875,63.1875,0.718079,-0.358948,0.40271,-0.439758
-237.312,110.562,49.5625,-1.37,-4.43,10.1,-15.375,26.875,-10.0625,66.875,-16.125,62.75,0.708252,-0.367249,0.42041,-0.432129
-240.875,121.438,49.75,-0.83,-4.2,9.73,-15.375,26.875,-10.0625,69.5,-17,62.5625,0.697815,-0.375366,0.438354,-0.424255
-244.625,126.5,50.3125,-0.59,-4.04,9.27,-15.375,26.875,-10.0625,72.25,-17.875,62.375,0.686768,-0.383545,0.456299,-0.416016
-249.438,128.188,50.3125,-0.59,-4.04,9.27,-15.375,26.875,-6.0625,75.0625,-18.75,62.1875,0.67511,-0.391541,0.474304,-0.407349
-253.75,130.375,51.4375,-0.31,-3.74,8.95,-13.5,28.25,-6.0625,77.9375,-19.5625,61.9375,0.662903,-0.399414,0.492432,-0.398132
-258.625,132.812,60.6875,0.45,-2.74,8.09,-13.5,28.25,-6.0625,81,-20.375,61.625,0.650085,-0.407043,0.510925,-0.388184
-265.438,136.562,67,0.44,-2.26,7.69,-13.5,28.25,-6.0625,84.125,-21.1875,61.3125,0.636414,-0.414429,0.529907,-0.37738
-275.625,142.938,71.5,0.32,-1.86,7.23,-13.5,28.25,-6.0625,87.4375,-22,60.9375,0.621643,-0.421692,0.5495,-0.365845
-287,151.562,71.5,0.32,-1.86,7.23,-13.5,28.25,-6.0625,91,-22.6875,60.9375,0.60553,-0.428772,0.569519,-0.35376
-298.188,161.5,72.75,0.21,-1.18,5.94,-12,29.5,-0.75,94.6875,-23.3125,60.5625,0.588196,-0.435913,0.5896,-0.341187
-308.125,166.75,69.875,0.76,-0.95,4.82,-12,29.5,-0.75,98.4375,-23.8125,59.8125,0.569885,-0.443054,0.609375,-0.328064
-315.812,169,69.8125,1.03,-0.83,4.31,-12,29.5,-0.75,102.375,-24.125,59.375,0.55072,-0.449951,0.628784,-0.314392
-321.438,170.5,68.75,1.47,-0.14,3.76,-12,29.5,-0.75,106.25,-24.375,58.9375,0.531006,-0.456604,0.647583,-0.300293
-323.125,170.188,68.75,1.47,-0.14,3.76,-12,29.5,4.875,110.188,-24.5,58.4375,0.510742,-0.462891,0.665649,-0.28595
-323.625,169.062,68.1875,1.78,-0.66,2.31,-10.0625,29.0625,4.875,114.125,-24.5625,57.6875,0.490784,-0.468628,0.682861,-0.270569
-323.625,157.75,82.0625,1.9,-0.14,1.67,-10.0625,29.0625,4.875,118,-24.6875,56.625,0.471252,-0.473816,0.699158,-0.254089
-323.688,144.312,85.1875,1.35,0.9,1.5,-10.0625,29.0625,4.875,121.875,-24.75,55.3125,0.45166,-0.478577,0.714783,-0.236877
-326.562,138.438,85.4375,1.67,1.02,0.99,-10.0625,29.0625,4.875,125.812,-24.6875,53.8125,0.431335,-0.483032,0.729797,-0.219055
-331.875,139,85.4375,1.67,1.02,0.99,-10.0625,29.0625,4.875,129.812,-24.6875,53.8125,0.410217,-0.487061,0.744446,-0.200806
-337.312,142.75,87.875,1.73,1.2,0.42,-9.75,27.5625,13,133.875,-24.5,52.125,0.388367,-0.490295,0.758728,-0.182068
-341.125,145.812,101,2.27,2.06,-1.48,-9.75,27.5625,13,137.938,-23.875,47.9375,0.366089,-0.492554,0.772583,-0.162781
-343.062,147.125,110.875,2.29,2.33,-2.52,-9.75,27.5625,13,142,-23.5,295.688,0.343689,-0.493591,0.786011,-0.143066
-341.062,146,121.062,2.24,2.39,-3.56,-9.75,27.5625,13,146,-23.0625,296.562,0.321594,-0.493225,0.798767,-0.123352
-332.938,143,121.062,2.24,2.39,-3.56,-9.75,27.5625,13,149.812,-22.5625,297.562,0.300171,-0.491394,0.810913,-0.104065
-318.562,139.25,130.375,1.65,2.77,-4.61,-9,23.6875,20.25,153.5,-22.0625,298.562,0.27948,-0.488281,0.822327,-0.0854492
-302.312,134.75,139.688,1.26,2.9,-4.92,-9,23.6875,20.25,156.938,-21.5,299.625,0.25946,-0.484192,0.832886,-0.067627
-286.688,130.938,141.25,1.07,2.96,-5.02,-9,23.6875,20.25,160.25,-20.8125,300.688,0.239807,-0.479309,0.842712,-0.0505981
-273.25,130.125,141.062,1,3.1,-4.58,-9,23.6875,20.25,163.438,-20,301.812,0.220276,-0.473877,0.851929,-0.0343018
-263.562,132.125,141.062,1,3.1,-4.58,-9,23.6875,20.25,163.438,-20,301.812,0.200439,-0.467957,0.860535,-0.0184326
-259.188,135.688,140.875,1.12,3.25,-4.97,-8.875,19.0625,25.875,166.562,-19.125,302.875,0.180481,-0.46167,0.868469,-0.00280762
-256.938,136.75,138.188,0.77,3.73,-7.32,-8.875,19.0625,25.875,172.5,-17,305,0.160889,-0.4552,0.87561,0.0126953
-252.5,132.25,132.125,0.61,3.87,-9.97,-8.875,19.0625,25.875,175.25,-15.9375,306.062,0.142334,-0.448669,0.881836,0.0274048
-239.562,124.125,124,0.43,4.12,-11.15,-8.875,19.0625,25.875,177.688,-14.9375,307,0.125427,-0.4422,0.887146,0.0410156
-219.188,111.062,124,0.43,4.12,-11.15,-8.875,19.0625,25.875,179.875,-14.125,307,0.11084,-0.435974,0.891479,0.0533447
-194.438,92.3125,113.562,0.14,4.4,-11.82,-9.6875,14,27.75,-178.188,-13.375,307.875,0.0985107,-0.430298,0.89502,0.0640259
-167.062,75.4375,86.9375,0.48,4.88,-13.12,-9.6875,14,27.75,-176.688,-12.6875,309.312,0.0882568,-0.425171,0.897827,0.072998
-138.938,62.875,77.5625,0.66,5.17,-13.15,-9.6875,14,27.75,-175.438,-12.125,309.875,0.0796509,-0.42041,0.900269,0.0800781
-111.625,54.125,72.625,0.36,5.59,-13.08,-9.6875,14,27.75,-174.438,-11.625,310.5,0.0723877,-0.415771,0.902527,0.0855103
-87.375,47.8125,72.625,0.36,5.59,-13.08,-9.6875,14,27.75,-173.688,-11.125,311.062,0.0662842,-0.411316,0.904663,0.0895996
-67.9375,42.75,67.8125,-0.42,6.58,-13.43,-10.6875,9.25,31.0625,-173.062,-10.6875,311.562,0.0609131,-0.407227,0.906555,0.0924683
-51.5625,40.6875,51.625,-0.84,7.57,-13.79,-10.6875,9.25,31.0625,-172.625,-10.1875,312,0.0560303,-0.403809,0.908264,0.0941162
-36.6875,41.375,43.625,-0.9,8.34,-13.84,-10.6875,9.25,31.0625,-172.312,-9.8125,312.438,0.0519409,-0.400879,0.909729,0.0947876
-23.375,39,37.875,-0.09,9.36,-13.89,-10.6875,9.25,31.0625,-172.188,-9.4375,312.75,0.048584,-0.398254,0.911072,0.0947876
-12.5625,33.375,37.875,-0.09,9.36,-13.89,-10.6875,9.25,31.0625,-172.062,-9.4375,312.75,0.0460205,-0.395691,0.912354,0.0942993
-3.75,28.125,36.375,0.23,9.98,-13.87,-11,7.5625,30.5,-172.062,-9.125,313.062,0.0439453,-0.392822,0.913818,0.0933228
3.5625,24.3125,47.3125,0.74,11.09,-14.49,-11,7.5625,30.5,-172.125,-8.5,313.875,0.0421753,-0.389282,0.915527,0.0919189
10.9375,22.9375,57.3125,0.4,11.67,-15.4,-11,7.5625,30.5,-172.188,-8.25,314.438,0.0405884,-0.384949,0.917664,0.0897217
20.5625,23.375,66.375,0,11.66,-15.86,-11,7.5625,30.5,-172.438,-7.875,315.125,0.0393066,-0.379883,0.920166,0.0865479
34.0625,24.625,66.375,0,11.66,-15.86,-11,7.5625,30.5,-172.875,-7.5625,315.125,0.0383301,-0.374268,0.922913,0.0818481
52.0625,26.6875,72.8125,-0.58,11.5,-15.96,-12.0625,9.0625,30.1875,-173.5,-7.1875,315.812,0.0379028,-0.368286,0.925842,0.0754395
73.6875,28.9375,73.875,-2.63,10.81,-14.48,-12.0625,9.0625,30.1875,-174.312,-6.8125,317.312,0.0380859,-0.362366,0.928833,0.0672607
95.9375,29.625,68.1875,-3.16,10.76,-13.89,-12.0625,9.0625,30.1875,-175.375,-6.5,318.062,0.0390625,-0.356812,0.93158,0.0574341
116.625,28.1875,58.8125,-3.41,10.81,-13.29,-12.0625,9.0625,30.1875,-176.625,-6.1875,318.688,0.0407715,-0.351807,0.934021,0.0462036
135.25,26.25,58.8125,-3.41,10.81,-13.29,-12.0625,9.0625,30.1875,-176.625,-6.1875,318.688,0.0407715,-0.347534,0.936096,0.0336914
150.688,25.8125,48.6875,-2.94,10.83,-12.42,-11.6875,10.5625,28.875,-178.062,-5.9375,319.25,0.0430298,-0.343689,0.937744,0.0200195
164.25,28.375,38.9375,-2.37,10.56,-12,-11.6875,10.5625,28.875,178.625,-5.375,320.188,0.0480957,-0.339966,0.939209,0.00512695
178.188,31.75,41.4375,-2.26,10.4,-11.75,-11.6875,10.5625,28.875,176.812,-5,320.688,0.0508423,-0.335815,0.940491,-0.0110474
193.312,34.6875,47.375,-2.3,10.1,-10.94,-11.6875,10.5625,28.875,174.812,-4.6875,321.25,0.053772,-0.331055,0.94165,-0.0285645
209.875,38.375,47.375,-2.3,10.1,-10.94,-11.6875,10.5625,28.875,174.812,-4.6875,321.25,0.0568237,-0.3255,0.942627,-0.0474854
226.188,42.5625,55,-2.7,9.97,-10.3,-11.6875,13.875,27.25,172.688,-4.3125,321.875,0.0601196,-0.319153,0.943359,-0.067627
241.562,44.875,65.625,-4.28,9.23,-9.03,-11.6875,13.875,27.25,167.938,-3.6875,323.375,0.0636597,-0.312256,0.943665,-0.0890503
257.125,47.3125,64.125,-5.81,8.15,-7.8,-11.6875,13.875,27.25,165.312,-3.375,324.125,0.0674438,-0.305176,0.943298,-0.111938
275.25,49.625,58.0625,-6.19,7.62,-6.99,-11.6875,13.875,27.25,162.5,-3,324.812,0.0713501,-0.298279,0.941956,-0.136414
295.25,52.625,58.0625,-6.19,7.62,-6.99,-11.6875,13.875,27.25,159.5,-3,324.812,0.0754395,-0.291748,0.939575,-0.162415
313.688,55.1875,49.4375,-6.2,7.11,-6.22,-11,19.5,22.25,156.312,-2.6875,325.5,0.0796509,-0.2854,0.936035,-0.189636
330.062,55.625,35.25,-5.58,5.85,-4.13,-11,19.5,22.25,153,-2,326.562,0.0841064,-0.279297,0.931335,-0.217957
345.25,55.6875,29.75,-5.87,5.17,-3.52,-11,19.5,22.25,149.562,-1.625,327.062,0.088562,-0.273193,0.925354,-0.247375
361,57.8125,27.4375,-5.82,4.97,-2.26,-11,19.5,22.25,145.938,-1.3125,327.562,0.0936279,-0.266968,0.918091,-0.277649
375.688,52.875,27.4375,-5.82,4.97,-2.26,-11,19.5,22.25,145.938,-1.3125,327.562,0.0936279,-0.266968,0.909363,-0.308472
388.625,46.4375,24.6875,-7.32,4,1.21,-11.375,23.875,15.875,142.188,-1.125,327.938,0.0993652,-0.260803,0.899292,-0.339844
398.812,48.625,7.625,-7.83,2.52,4.64,-11.375,23.875,15.875,134.438,-0.5,147.25,0.108948,-0.248657,0.887939,-0.371277
401,60.75,-2.6875,-7.55,1.97,5.86,-11.375,23.875,15.875,130.625,0,149,0.111389,-0.242737,0.875732,-0.402161
392.75,75.0625,-12.0625,-5.98,1.38,6.59,-11.375,23.875,15.875,127,0.625,150.875,0.112,-0.236938,0.863098,-0.431702
376.688,89.8125,-12.0625,-5.98,1.38,6.59,-11.375,23.875,15.875,127,0.625,150.875,0.112,-0.231018,0.850281,-0.459656
356.5,101.125,-17.5,-4.75,1.24,6.21,-11.375,29.0625,6.1875,123.562,1.3125,152.812,0.111084,-0.224976,0.837463,-0.485779
336.938,100.875,-5.125,-2.25,1.15,6.32,-11.375,29.0625,6.1875,117.062,2.375,155.75,0.109558,-0.21875,0.824585,-0.510132
323.375,85.8125,9,-3.69,0.49,7.57,-11.375,29.0625,6.1875,114,2.625,156.438,0.110962,-0.212158,0.811462,-0.533081
315.438,68.25,21.125,-3.91,0.32,9.07,-11.375,29.0625,6.1875,111,2.625,156.938,0.113159,-0.204956,0.798279,-0.554932
308.625,62.375,21.125,-3.91,0.32,9.07,-11.375,29.0625,6.1875,111,2.625,156.938,0.114807,-0.196594,0.785461,-0.5755
293.625,72.1875,31.1875,-4.65,0.48,9.88,-13,31.0625,-3.1875,108.125,2.625,157.438,0.11499,-0.186584,0.773438,-0.594788
275,94.9375,50.25,-5.08,-0.7,9.59,-13,31.0625,-3.1875,102.812,2.3125,158.938,0.113647,-0.174622,0.762024,-0.613098
261.5,121.375,62.0625,-4.99,-1.35,9.49,-13,31.0625,-3.1875,100.312,2,160,0.111267,-0.160583,0.750793,-0.630981
257.188,145.375,75.25,-4.96,-1.77,9.36,-13,31.0625,-3.1875,97.6875,1.5,160.938,0.108582,-0.144714,0.739136,-0.648804
260.812,160.5,75.25,-4.96,-1.77,9.36,-13,31.0625,-3.1875,97.6875,1.5,160.938,0.106628,-0.127991,0.726746,-0.666382
267.812,159.5,87.4375,-5.57,-2.16,9.49,-11.75,29.875,-11.5625,95.0625,0.875,161.812,0.105957,-0.111572,0.713318,-0.683777
275.062,145.312,94,-6.14,-2.32,10.73,-11.75,29.875,-11.5625,89.6875,-0.75,162.75,0.106201,-0.0960083,0.698914,-0.700745
280.062,127.875,85.4375,-6.33,-2.47,11.65,-11.75,29.875,-11.5625,87,-1.625,163.062,0.106689,-0.081543,0.683777,-0.717224
280.5,115.75,85.4375,-5.41,-3.19,12.14,-11.75,29.875,-11.5625,84.4375,-2.4375,163.375,0.106812,-0.0681763,0.668579,-0.732788
272.562,108.438,74.875,-5.41,-3.19,12.14,-11.75,29.875,-11.5625,84.4375,-2.4375,163.375,0.106812,-0.0681763,0.668579,-0.747253
260.25,102.875,67.9375,-4.8,-3.47,12,-9.25,27.375,-18.875,81.9375,-3.1875,163.75,0.106689,-0.055603,0.653564,-0.76062
248.688,101.562,68.125,-3.78,-3.97,11.3,-9.25,27.375,-18.875,77.3125,-4.9375,164.25,0.106628,-0.0301514,0.624512,-0.773132
240.688,104.688,77.0625,-4.7,-4.03,11.29,-9.25,27.375,-18.875,75.125,-6.0625,164.375,0.107483,-0.0160522,0.610107,-0.784851
236.938,108.625,91.5,-5.38,-4.14,11.37,-9.25,27.375,-18.875,72.875,-7.3125,164.375,0.108948,-0.0012207,0.595398,-0.796021
236.688,110.688,103.75,-5.38,-4.14,11.37,-9.25,27.375,-18.875,72.875,-7.3125,164.375,0.108948,-0.0012207,0.580139,-0.806824
239.562,111.625,109.312,-5.81,-4.44,11.34,-4.75,22.5,-25.5625,70.6875,-8.625,164.375,0.110657,0.0139771,0.56427,-0.817383
243.75,109.375,109.938,-7.51,-5.21,12.63,-4.75,22.5,-25.5625,66.125,-11.375,164.25,0.114136,0.0437622,0.547852,-0.827637
246.312,105.688,106.188,-8.04,-5.55,13.29,-4.75,22.5,-25.5625,63.875,-12.625,164.25,0.115417,0.0575562,0.531128,-0.837402
245.125,99,97.4375,-8.41,-5.62,13.99,-4.75,22.5,-25.5625,61.625,-13.75,164.375,0.11615,0.0700684,0.514526,-0.84668
239.75,90.4375,84.6875,-8.41,-5.62,13.99,-4.75,22.5,-25.5625,61.625,-13.75,164.375,0.11615,0.0814209,0.498291,-0.855347
231.438,85.25,68.9375,-7.98,-5.24,14.17,-2.1875,16.5625,-29.1875,59.5,-14.75,164.5,0.115967,0.09198,0.482422,-0.863464
224.062,83.5,55.375,-6.58,-4.98,13.37,-2.1875,16.5625,-29.1875,55.4375,-16.4375,165.125,0.113403,0.102173,0.466736,-0.871155
219.5,83.375,49.375,-6.44,-4.64,13.32,-2.1875,16.5625,-29.1875,53.4375,-17.3125,165.438,0.111877,0.112366,0.450806,-0.878418
220,83.3125,50.6875,-7.39,-4.61,14.14,-2.1875,16.5625,-29.1875,51.375,-18.25,165.75,0.110657,0.122681,0.434448,-0.885437
223.188,82.5625,54.5,-7.39,-4.61,14.14,-2.1875,16.5625,-29.1875,51.375,-18.25,165.75,0.110657,0.132751,0.41748,-0.892212
227.25,78.25,57.75,-8.23,-4.66,14.98,0.6875,10.1875,-31.1875,49.25,-19.125,165.938,0.109741,0.142456,0.400024,-0.898804
230.25,73.25,58.1875,-9.89,-4.23,16.91,0.6875,10.1875,-31.1875,44.875,-20.875,166.375,0.107788,0.151794,0.382507,-0.904968
229.812,71.9375,53.75,-10.46,-4.18,17.07,0.6875,10.1875,-31.1875,42.75,-21.6875,166.688,0.105896,0.16095,0.365173,-0.910767
227.312,74.3125,44.875,-10.51,-4.25,17.07,0.6875,10.1875,-31.1875,40.6875,-22.5,167.125,0.102966,0.170044,0.347961,-0.916199
226.125,78.875,33.875,-10.51,-4.25,17.07,0.6875,10.1875,-31.1875,40.6875,-22.5,167.125,0.102966,0.179138,0.330688,-0.921265
227.062,83.75,23.125,-10.63,-4.19,17.39,2.5625,3.5625,-32.5,38.625,-23.25,167.688,0.098999,0.18811,0.313354,-0.926025
228.875,86.25,13.25,-10.74,-4.42,18.27,2.5625,3.5625,-32.5,34.5625,-24.75,169.125,0.088562,0.196777,0.295898,-0.930542
230,86.5625,4.5625,-10.72,-4.62,18.25,2.5625,3.5625,-32.5,32.5625,-25.4375,169.938,0.0822754,0.205322,0.278442,-0.934631
230.75,87.625,-3.1875,-10.86,-4.7,18.46,2.5625,3.5625,-32.5,30.625,-26.0625,170.812,0.0753784,0.213562,0.260925,-0.938416
231,87.75,-9.75,-10.86,-4.7,18.46,2.5625,3.5625,-32.5,30.625,-26.0625,170.812,0.0753784,0.213562,0.260925,-0.938416
230.062,88,-17.4375,-11.3,-4.52,18.88,4.875,-2.25,-31,28.625,-26.75,171.75,0.0678711,0.221558,0.243469,-0.941833
228.312,91,-28.8125,-11.05,-5.26,18.17,4.875,-2.25,-31,25,-28,173.938,0.0499268,0.237244,0.209473,-0.947266
226.562,94.1875,-41.875,-11,-5.58,18.16,4.875,-2.25,-31,23.25,-28.6875,175.25,0.0393066,0.244873,0.192871,-0.949341
225.75,95.5625,-54.8125,-10.66,-6.04,18.56,4.875,-2.25,-31,21.625,-29.25,176.625,0.02771,0.252136,0.176575,-0.95105
224.375,95.8125,-66.625,-10.66,-6.04,18.56,4.875,-2.25,-31,21.625,-29.25,176.625,0.02771,0.252136,0.176575,-0.95105
219.938,95.75,-76.3125,-10.42,-6.13,18.63,7.0625,-9.5,-28.5,20.0625,-29.875,178.125,0.0155029,0.259155,0.160706,-0.952271
211.125,98.1875,-84.875,-10.01,-6.39,18,7.0625,-9.5,-28.5,17.4375,-31.1875,181.25,-0.0105591,0.273254,0.131714,-0.95282
199.438,102.938,-93.125,-9.83,-6.51,17,7.0625,-9.5,-28.5,16.375,-31.875,182.875,-0.024292,0.280579,0.118896,-0.952148
187.125,108,-102.438,-9.7,-6.47,16.73,7.0625,-9.5,-28.5,15.5625,-32.625,184.625,-0.0388184,0.288147,0.107056,-0.950806
177.125,113.688,-113.938,-9.7,-6.47,16.73,7.0625,-9.5,-28.5,15.5625,-32.625,184.625,-0.0388184,0.288147,0.107056,-0.950806
169.375,118.938,-127.688,-9.43,-6.46,16.55,9.75,-14,-25.375,14.875,-33.4375,186.5,-0.0542603,0.295898,0.0961914,-0.946167
162.25,124,-142.188,-7.55,-6.08,16.4,9.75,-14,-25.375,14.125,-35.0625,190.625,-0.0880127,0.312073,0.0770264,-0.94281
154.312,129.188,-155.562,-6.73,-6.11,16.29,9.75,-14,-25.375,14.0625,-35.9375,192.812,-0.105835,0.320557,0.0687866,-0.938782
144.938,134.438,-165.5,-5.98,-6.13,16.21,9.75,-14,-25.375,14.1875,-36.8125,195.062,-0.123901,0.329224,0.0614624,-0.934082
135.25,138,-171.438,-5.98,-6.13,16.21,9.75,-14,-25.375,14.1875,-36.8125,195.062,-0.123901,0.329224,0.0614624,-0.928772
125.062,140.062,-173.5,-4.79,-6.32,16.17,13.875,-16.1875,-21.25,14.4375,-37.75,197.312,-0.141785,0.338013,0.0549316,-0.923035
113.812,139.5,-173.312,-3.62,-6.51,16.18,13.875,-16.1875,-21.25,15.5,-39.4375,201.688,-0.176086,0.355347,0.0445557,-0.916931
101.125,138.312,-171.25,-3.02,-6.52,16.26,13.875,-16.1875,-21.25,16.3125,-40.3125,203.812,-0.1922,0.364014,0.0407715,-0.9104
87.125,137.812,-168.375,-1.52,-6.54,16.17,13.875,-16.1875,-21.25,17.25,-41.125,205.812,-0.207458,0.372925,0.0380859,-0.903564
71.1875,138.688,-164,-1.52,-6.54,16.17,13.875,-16.1875,-21.25,17.25,-41.125,205.812,-0.207458,0.372925,0.0380859,-0.896362
53.5,141.688,-156.812,-0.67,-6.58,16.23,19.1875,-15.5,-17.6875,18.375,-41.9375,207.75,-0.221497,0.382202,0.036499,-0.888977
34.1875,144.688,-145.188,0.82,-6.88,15.87,19.1875,-15.5,-17.6875,21.125,-43.6875,210.938,-0.244446,0.401978,0.0363159,-0.881653
12.625,142.062,-127.812,1.89,-7.34,14.78,19.1875,-15.5,-17.6875,22.5625,-44.5,212.188,-0.252441,0.411743,0.0377197,-0.874817
-7.75,133.938,-105.688,2.16,-7.46,14.55,19.1875,-15.5,-17.6875,24,-45.3125,213.062,-0.257935,0.421143,0.0397949,-0.868652
-25.5625,123.562,-81.1875,2.16,-7.46,14.55,19.1875,-15.5,-17.6875,24,-45.3125,213.062,-0.257935,0.421143,0.0397949,-0.86322
-43.0625,112.625,-56.5,2.29,-7.41,14.52,22.5,-14.0625,-13.25,25.375,-46.0625,213.625,-0.260925,0.430115,0.0425415,-0.858459
-63.0625,102.625,-32.8125,2.39,-7.11,13.76,22.5,-14.0625,-13.25,28.1875,-47.5625,213.75,-0.259277,0.447571,0.0505981,-0.854309
-86,94.6875,-10.625,2.22,-6.95,13.23,22.5,-14.0625,-13.25,29.5625,-48.375,213.312,-0.254761,0.456299,0.0562134,-0.850708
-109.875,87.4375,10.5625,1.96,-6.82,12.7,22.5,-14.0625,-13.25,31,-49.1875,212.562,-0.247864,0.464966,0.0627441,-0.847595
-131,79.6875,30.125,1.96,-6.82,12.7,22.5,-14.0625,-13.25,31,-49.1875,212.562,-0.247864,0.464966,0.0627441,-0.844971
-148.688,70.5,47.75,1.35,-6.59,11.82,24.75,-11.875,-11.6875,32.375,-50,211.562,-0.238953,0.473328,0.0700073,-0.842773
-162.562,60.875,63.5625,0.92,-6.15,11.31,24.75,-11.875,-11.6875,35,-51.6875,208.812,-0.216064,0.488892,0.0859985,-0.840759
-173.5,53.75,76.6875,0.68,-5.91,10.86,24.75,-11.875,-11.6875,36.25,-52.5625,207.125,-0.202576,0.496216,0.0944214,-0.838928
-182.625,48.625,88.125,0.13,-5.31,10.19,24.75,-11.875,-11.6875,37.4375,-53.4375,205.312,-0.187988,0.503174,0.103027,-0.837158
-189.688,42.5625,97.9375,0.13,-5.31,10.19,24.75,-11.875,-11.6875,37.4375,-53.4375,205.312,-0.187988,0.503174,0.103027,-0.835571
-194.188,34.125,105.875,-0.21,-5,10.22,24.875,-10.0625,-11.25,38.4375,-54.375,203.312,-0.172546,0.509521,0.111694,-0.834045
-197.188,25.9375,111.188,-0.51,-4.66,10.71,24.875,-10.0625,-11.25,40.25,-56.0625,199,-0.139709,0.520081,0.129272,-0.832642
-200.125,16.9375,115.312,-0.51,-4.45,11.31,24.875,-10.0625,-11.25,41,-56.875,196.75,-0.122437,0.524353,0.138184,-0.831238
-203.562,9.375,120,-0.49,-4.19,11.44,24.875,-10.0625,-11.25,41.625,-57.75,194.312,-0.104431,0.528259,0.147156,-0.829712
-208.125,5.6875,125.5,-0.49,-4.19,11.44,24.875,-10.0625,-11.25,41.625,-57.75,194.312,-0.104431,0.528259,0.147156,-0.82782
-215.812,3.875,133,-0.56,-3.79,11.41,24.1875,-11.5,-12.875,42.1875,-58.625,191.75,-0.0855103,0.531982,0.15625,-0.8255
-225.812,3.625,140.438,-0.27,-2.84,10.59,24.1875,-11.5,-12.875,43.3125,-60.5625,186.188,-0.0446777,0.539246,0.175415,-0.822449
-236.25,6.625,147.188,-0.07,-2.67,10.34,24.1875,-11.5,-12.875,43.8125,-61.6875,183.188,-0.0228882,0.54303,0.185364,-0.818665
-246.062,10,154.812,-0.14,-2.4,9.85,24.1875,-11.5,-12.875,44.25,-62.875,179.938,0.00012207,0.546753,0.195312,-0.814209
-255.438,11.875,165.5,-0.14,-2.4,9.85,24.1875,-11.5,-12.875,44.25,-62.875,179.938,0.00012207,0.546753,0.195312,-0.814209
-262.875,9.875,177.938,-0.38,-2.06,9.46,23.5,-11.1875,-14.0625,44.5,-64.1875,176.5,0.024292,0.550171,0.205139,-0.809082
-268.688,4.6875,190,-1.82,-1.31,8.99,23.5,-11.1875,-14.0625,43.8125,-66.8125,169.125,0.0759277,0.555115,0.223755,-0.797485
-272.938,-1.4375,198.562,-2.19,-1.07,9.2,23.5,-11.1875,-14.0625,42.9375,-68.125,165.188,0.102722,0.556519,0.232605,-0.790955
-275.875,-6.8125,204.688,-2.68,-0.74,9.12,23.5,-11.1875,-14.0625,41.5625,-69.375,161.125,0.130127,0.55719,0.241211,-0.783875
-280.188,-12.5,210.25,-2.68,-0.74,9.12,23.5,-11.1875,-14.0625,41.5625,-69.375,161.125,0.130127,0.55719,0.241211,-0.783875
-283.75,-17.6875,216.438,-2.92,-0.69,9.01,22.375,-11.875,-17.25,39.625,-70.625,156.938,0.158081,0.557007,0.249512,-0.776184
-285.188,-19.6875,222.875,-3.77,-0.36,9.03,22.375,-11.875,-17.25,33.75,-72.9375,148.312,0.215027,0.555359,0.264709,-0.758484
-285.875,-18.75,228.625,-4.78,-0.1,9.08,22.375,-11.875,-17.25,29.8125,-74,143.875,0.243591,0.553894,0.27179,-0.748291
-287.25,-17.5,231.438,-5.2,0.12,9.41,22.375,-11.875,-17.25,25.25,-74.875,139.5,0.271912,0.552002,0.27887,-0.737244
-289.812,-15.125,230.312,-5.2,0.12,9.41,22.375,-11.875,-17.25,25.25,-74.875,139.5,0.271912,0.552002,0.27887,-0.737244
-293.688,-12.4375,225.812,-5.61,0.34,9.76,20.5,-10.375,-20.1875,20.25,-75.625,135.062,0.299866,0.5495,0.286194,-0.725403
-301.25,-11.6875,219.938,-6.33,1.12,10.29,20.5,-10.375,-20.1875,9.4375,-76.5,126.188,0.354736,0.541931,0.302368,-0.699341
-310.625,-12.5625,213.5,-6.56,1.42,10.25,20.5,-10.375,-20.1875,4.125,-76.625,121.688,0.381836,0.536621,0.311279,-0.68512
-320.562,-12.25,207.688,-6.86,1.83,10.25,20.5,-10.375,-20.1875,-0.875,-76.5625,117.25,0.40863,0.530334,0.320618,-0.670044
-330.125,-11.5,203,-6.86,1.83,10.25,20.5,-10.375,-20.1875,-0.875,-76.5625,117.25,0.40863,0.530334,0.320618,-0.670044
-338.312,-12.1875,198.812,-7.34,2.35,10.4,18.6875,-9.25,-22.5625,-5.5625,-76.3125,112.688,0.43512,0.523071,0.330261,-0.654236
-346.375,-16.9375,194.688,-9.35,3.75,10.5,18.6875,-9.25,-22.5625,-13.125,-75.3125,103.688,0.487427,0.504517,0.349609,-0.620972
-353.875,-25.625,189.75,-9.94,4.06,10.21,18.6875,-9.25,-22.5625,-15.75,-74.5625,99.25,0.513123,0.493042,0.359009,-0.603943
-359.5,-34.5625,183.5,-11.24,4.67,9.7,18.6875,-9.25,-22.5625,-17.5625,-73.6875,94.9375,0.538025,0.480347,0.368164,-0.586731
-361.438,-40.375,175.125,-11.24,4.67,9.7,18.6875,-9.25,-22.5625,-17.5625,-73.6875,94.9375,0.538025,0.480347,0.368164,-0.586731
-360.25,-42.375,164.312,-11.97,4.88,9.33,16.375,-4.875,-25.5,-18.6875,-72.8125,90.75,0.561768,0.466736,0.377258,-0.569458
-355.938,-43.125,150.875,-13.92,5.24,9.23,16.375,-4.875,-25.5,-19,-71.125,83.0625,0.604797,0.437195,0.394958,-0.535828
-348.375,-43.6875,133.375,-16.29,5.64,8.9,16.375,-4.875,-25.5,-18.25,-70.375,79.625,0.623474,0.421448,0.403809,-0.520264
-338.812,-43.75,110.688,-17.47,5.9,8.35,16.375,-4.875,-25.5,-16.8125,-69.6875,76.625,0.640076,0.404785,0.412781,-0.506042
-329.312,-44.6875,82.8125,-17.47,5.9,8.35,16.375,-4.875,-25.5,-16.8125,-69.6875,76.625,0.640076,0.404785,0.412781,-0.506042
-318.375,-45.5,48.0625,-18.6,6.25,7.79,15.25,0.875,-27.0625,-14.625,-69.125,74.0625,0.654358,0.387146,0.422119,-0.493713
-303.875,-40.875,5.75,-19.21,7.06,7.66,15.25,0.875,-27.0625,-7.625,-68.5,70.5,0.674011,0.349609,0.443359,-0.476379
-288.125,-31.625,-42.125,-18.37,6.73,7.65,15.25,0.875,-27.0625,-2.8125,-68.4375,69.5625,0.679016,0.329834,0.455688,-0.47168
-273,-19.625,-88.5625,-17.54,6.64,7.9,15.25,0.875,-27.0625,2.75,-68.375,69.0625,0.681152,0.309937,0.469055,-0.468994
-257.25,-5,-126.562,-17.54,6.64,7.9,15.25,0.875,-27.0625,2.75,-68.375,69.0625,0.681152,0.309937,0.469055,-0.468994
-243.812,9,-153.188,-16.8,6.76,8.41,15.25,7.25,-27.0625,8.8125,-68.3125,68.9375,0.680908,0.2901,0.483093,-0.467773
-234.75,22.0625,-170.062,-15.86,7.2,8.33,15.25,7.25,-27.0625,21.8125,-67.9375,69.3125,0.675354,0.250977,0.512573,-0.467102
-228.75,33.1875,-179.812,-15.92,7.06,7.79,15.25,7.25,-27.0625,28.375,-67.5,69.6875,0.670776,0.231812,0.527405,-0.467102
-221.938,40.4375,-186,-16.81,6.38,6.84,15.25,7.25,-27.0625,34.75,-66.9375,70.1875,0.665039,0.213135,0.541931,-0.467468
-210.875,46.6875,-191.062,-16.81,6.38,6.84,15.25,7.25,-27.0625,34.75,-66.9375,70.1875,0.665039,0.213135,0.541931,-0.467468
-194.625,54.125,-197.188,-17.35,5.97,6.84,13.875,14.25,-25.5,40.8125,-66.1875,70.875,0.658142,0.195251,0.556091,-0.468567
-176,62.875,-206.562,-18.54,5.43,7.05,13.875,14.25,-25.5,52.3125,-64.0625,73.0625,0.639465,0.161804,0.583435,-0.473816
-158.625,75.8125,-220.938,-19.7,5.64,7.58,13.875,14.25,-25.5,57.875,-62.625,74.625,0.627075,0.145569,0.59729,-0.478333
-145.625,90.9375,-242.562,-19.86,5.9,7.79,13.875,14.25,-25.5,63.25,-60.8125,76.6875,0.612183,0.128845,0.61145,-0.484497
-135.688,105.062,-273.188,-19.86,5.9,7.79,13.875,14.25,-25.5,63.25,-60.8125,76.6875,0.612183,0.128845,0.61145,-0.484497
-128.5,117.875,-311.562,-19.75,6.18,7.94,12.6875,20.75,-22.6875,68.375,-58.5625,79.25,0.594482,0.11084,0.625916,-0.492432
-123.438,128.188,-354.375,-19.01,5.87,7.99,12.6875,20.75,-22.6875,77.375,-52.375,86,0.550171,0.0698853,0.654724,-0.51355
-118.438,136.938,-394.562,-16.85,5.55,8.16,12.6875,20.75,-22.6875,81.125,-48.5625,90.1875,0.523804,0.0473633,0.668457,-0.52594
-112.25,146.938,-427,-15.16,5.16,8.44,12.6875,20.75,-22.6875,84.3125,-44.4375,94.8125,0.494751,0.0246582,0.681458,-0.538696
-104.625,161.875,-447.875,-13.31,5.16,8.44,12.6875,20.75,-22.6875,84.3125,-44.4375,94.8125,0.494751,0.0246582,0.681458,-0.538696
-98.25,182.625,-455,-11.29,4.57,8.94,8.6875,26.75,-18.5625,87.1875,-40.1875,99.875,0.463318,0.00262451,0.693909,-0.551208
-96,207.062,-445.062,-7.51,2.33,9.84,8.6875,26.75,-18.5625,92.25,-31.875,110.625,0.395508,-0.0348511,0.718018,-0.571655
-98.5625,237.062,-420,-6.07,1.73,10.17,8.6875,26.75,-18.5625,94.625,-28,116.188,0.360046,-0.048584,0.730286,-0.578491
-104.062,269.625,-383.812,-5.47,0.92,11.48,8.6875,26.75,-18.5625,96.9375,-24.375,121.812,0.324097,-0.0584717,0.74292,-0.582703
-113.188,299.375,-342.938,-4.59,0.92,11.48,8.6875,26.75,-18.5625,96.9375,-24.375,121.812,0.324097,-0.0584717,0.74292,-0.582703
-129.188,308.938,-300.312,-3.46,0.41,10.98,0.5,29.5625,-15.25,99.25,-21.0625,127.312,0.289062,-0.0656128,0.755737,-0.583923
-146.5,309.75,-257.438,-2.48,-0.26,9.01,0.5,29.5625,-15.25,103.875,-15.3125,137.812,0.222839,-0.0719604,0.781372,-0.57843
-154.625,322.688,-218.812,-1.77,-0.32,7.8,0.5,29.5625,-15.25,106,-12.75,143.25,0.190247,-0.0701904,0.79364,-0.573547
-152.75,341.812,-183.875,-0.9,-0.31,7.34,0.5,29.5625,-15.25,108.062,-10.3125,148.938,0.157837,-0.0652466,0.805176,-0.567932
-146.75,359.875,-151.938,-0.52,-0.31,7.34,0.5,29.5625,-15.25,108.062,-10.3125,148.938,0.157837,-0.0652466,0.805176,-0.567932
-140.125,376.75,-123.125,-0.29,-0.34,6.84,-2.6875,31.0625,-13.25,109.875,-8,154.812,0.125427,-0.0574341,0.815735,-0.561768
-133.75,396.062,-97.625,-0.16,-0.26,6.21,-2.6875,31.0625,-13.25,113.125,-3.5625,167.562,0.0594482,-0.0334473,0.833618,-0.548096
-128.188,418.375,-76.875,-0.49,-0.37,5.69,-2.6875,31.0625,-13.25,114.438,-1.3125,174.562,0.0253906,-0.0179443,0.840759,-0.540466
-123.875,439.188,-60.125,-0.41,-0.4,5.04,-2.6875,31.0625,-13.25,115.625,0.875,181.938,-0.0090332,-0.000854492,0.846375,-0.532532
-117.375,452.188,-46.5,-0.22,-0.4,5.04,-2.6875,31.0625,-13.25,115.625,0.875,181.938,-0.0090332,-0.000854492,0.846375,-0.532532
-105.375,460.125,-34.4375,-0.02,-0.43,4.23,-3.875,32.1875,-9.75,116.5,3.125,189.438,-0.043457,0.017395,0.850098,-0.524597
-85,463.062,-22.6875,0.39,-0.6,3.19,-3.875,32.1875,-9.75,117.125,7.5,204.438,-0.11084,0.0562134,0.850403,-0.51123
-57.875,460.312,-11.5,0.95,-0.63,3.17,-3.875,32.1875,-9.75,116.812,9.5,211.562,-0.143311,0.0760498,0.84668,-0.506714
-27.5625,454.875,-0.125,1.68,-0.37,4.06,-3.875,32.1875,-9.75,116.062,11.3125,218.25,-0.174927,0.0961304,0.840515,-0.503723
1.625,450.75,11.875,3.06,-0.37,4.06,-3.875,32.1875,-9.75,116.062,11.3125,218.25,-0.174927,0.0961304,0.840515,-0.503723
25.5625,449,25,3.08,0.1,5.01,-2.375,32.5,-8.0625,114.938,13,224.562,-0.20575,0.116516,0.83197,-0.501892
39.5625,446.562,36.375,2.74,0.71,5.2,-2.375,32.5,-8.0625,112.062,15.6875,235.812,-0.264587,0.157532,0.810059,-0.499023
43.1875,434.562,41.3125,2.45,0.69,4.6,-2.375,32.5,-8.0625,110.562,16.8125,240.688,-0.29126,0.17627,0.798157,-0.49707
42.8125,408.5,38.3125,2.62,0.36,3.97,-2.375,32.5,-8.0625,109,17.75,245.062,-0.315979,0.192871,0.786011,-0.495117
47.0625,376.938,30.125,3.22,0.36,3.97,-2.375,32.5,-8.0625,109,17.75,245.062,-0.315979,0.192871,0.786011,-0.495117
61.0625,347.875,21.0625,3.82,-0.02,3.45,1.0625,32.5,-7.6875,107.312,18.625,248.938,-0.33905,0.207092,0.773499,-0.493835
85.375,327.188,17.8125,4.08,0.43,6.57,1.0625,32.5,-7.6875,103.25,19.9375,255.25,-0.382568,0.230286,0.744812,-0.495789
113.938,317.688,19.0625,4.65,0.56,7.77,1.0625,32.5,-7.6875,100.812,20.375,258.062,-0.404236,0.240723,0.728027,-0.498596
135.562,320.812,22.875,4.79,0.52,8.27,1.0625,32.5,-7.6875,98.1875,20.625,260.625,-0.425842,0.251343,0.7099,-0.501587
143.125,327,30.0625,5,0.52,8.27,1.0625,32.5,-7.6875,98.1875,20.625,260.625,-0.425842,0.251343,0.7099,-0.501587
138.688,323.312,39.25,5.16,0.4,8.08,3.375,32.0625,-8.5,95.6875,20.625,263,-0.446289,0.262268,0.691223,-0.504211
131.938,309.312,49.1875,4.75,0.17,6.4,3.375,32.0625,-8.5,90.9375,19.9375,266.812,-0.481995,0.28363,0.653992,-0.509521
131.812,291.438,56.4375,4.62,0.11,5.85,3.375,32.0625,-8.5,88.625,19.3125,268.25,-0.497681,0.29303,0.63501,-0.513062
140.938,275,62.125,4.26,-0.16,6.97,3.375,32.0625,-8.5,86.25,18.5625,269.438,-0.512756,0.301575,0.615051,-0.517456
156.312,267.125,67.875,3.74,-0.16,6.97,3.375,32.0625,-8.5,86.25,18.5625,269.438,-0.512756,0.301575,0.615051,-0.517456
175.188,267.562,73.1875,3.55,-0.25,8.13,6.6875,30.25,-10.5625,83.75,17.625,270.5,-0.52771,0.309387,0.59375,-0.522766
192.188,269.75,78.6875,3.28,-0.72,10.89,6.6875,30.25,-10.5625,78.4375,15.25,272.312,-0.557129,0.323181,0.546936,-0.534851
203.75,270.75,84,3.03,-0.76,11.07,6.6875,30.25,-10.5625,75.8125,13.875,273.062,-0.571045,0.32959,0.522217,-0.540894
207.125,271.312,87.75,2.2,-0.79,11.27,6.6875,30.25,-10.5625,73.25,12.3125,273.812,-0.584534,0.335938,0.496765,-0.546509
207.125,274.062,90,2.39,-0.79,11.27,6.6875,30.25,-10.5625,73.25,12.3125,273.812,-0.584534,0.335938,0.496765,-0.546509
206.312,273,88.4375,2.54,-1.03,10.56,11.25,28.75,-12.5625,70.8125,10.6875,274.562,-0.597534,0.341919,0.471069,-0.551514
207,268,88.0625,2.68,-1.37,10.37,11.25,28.75,-12.5625,66.0625,7.125,275.812,-0.621277,0.352112,0.418579,-0.561096
213.75,263.812,94.0625,2.07,-2.39,13.14,11.25,28.75,-12.5625,63.6875,5.1875,276.188,-0.631775,0.356018,0.391113,-0.566711
224.875,256.5,105.312,1.24,-2.77,14.24,11.25,28.75,-12.5625,61.3125,3.0625,276.375,-0.641052,0.358887,0.363098,-0.57312
235.688,245.125,117.25,0.67,-2.77,14.24,11.25,28.75,-12.5625,61.3125,3.0625,276.375,-0.641052,0.358887,0.363098,-0.57312
241.25,233.188,127.375,0.03,-3.05,14.67,15,25.75,-12.5,58.9375,0.875,276.375,-0.649048,0.36084,0.334778,-0.580078
246.375,227.062,134.812,-1.61,-2.92,15.98,15,25.75,-12.5,54.125,-3.6875,276.188,-0.662476,0.36261,0.276672,-0.594238
252.875,224.75,137.562,-2.26,-2.99,16.66,15,25.75,-12.5,51.75,-6,276.062,-0.668457,0.362427,0.246765,-0.600769
259.062,224.562,136.312,-2.48,-3.04,17.99,15,25.75,-12.5,49.25,-8.4375,276,-0.674072,0.361572,0.216248,-0.60675
265.625,226.5,136.188,-2.92,-3.04,17.99,15,25.75,-12.5,49.25,-8.4375,276,-0.674072,0.361572,0.216248,-0.60675
280,225.688,153.375,-3.28,-2.87,18.65,21,20.5625,-11.25,46.6875,-11,275.75,-0.678528,0.359802,0.184265,-0.613342
280,225.688,153.375,-4.29,-2.71,19.21,21,20.5625,-11.25,41.375,-16.25,275.125,-0.684509,0.354431,0.119568,-0.625732
285.438,216.188,167.25,-5.33,-2.1,20.88,21,20.5625,-11.25,38.5625,-18.8125,274.562,-0.685547,0.350037,0.0870361,-0.632446
290.812,204.25,176.75,-7.83,-1.72,21.04,21,20.5625,-11.25,35.625,-21.3125,274.125,-0.68634,0.344116,0.0551758,-0.638306
296,190.688,167.312,-9.09,-1.72,21.04,21,20.5625,-11.25,35.625,-21.3125,274.125,-0.68634,0.344116,0.0551758,-0.638306
301.25,183.688,149.312,-10.15,-1.43,21.27,25.0625,14.6875,-11.375,32.625,-23.5625,273.812,-0.687561,0.337036,0.0239258,-0.6427
301.25,183.688,149.312,-10.89,-1.11,21.41,25.0625,14.6875,-11.375,26.375,-27.875,273.438,-0.689331,0.320618,-0.0375366,-0.64856
310.062,168.5,126.562,-11.89,0.12,21.31,25.0625,14.6875,-11.375,23.0625,-29.1875,273.875,-0.694031,0.307129,-0.0648193,-0.647949
337.75,119.375,68.3125,-12.06,0.3,21.48,25.0625,14.6875,-11.375,19.625,-30.1875,274.688,-0.700439,0.291443,-0.0910034,-0.645142
355.312,99.6875,34.8125,-11.97,0.3,21.48,25.0625,14.6875,-11.375,19.625,-30.1875,274.688,-0.700439,0.291443,-0.0910034,-0.645142
369.938,85.6875,2.25,-11.65,0.48,21.87,27,6.5,-8.875,16.1875,-31,275.75,-0.708374,0.274048,-0.116211,-0.639954
378.188,76.5625,-26.1875,-10.23,0.96,22.88,27,6.5,-8.875,9.5,-32.1875,278.75,-0.72699,0.236938,-0.163818,-0.623291
377.875,69.875,-48.875,-9.52,1.45,23.48,27,6.5,-8.875,6.375,-32.75,280.438,-0.736572,0.218384,-0.185852,-0.61261
369.875,63.9375,-65,-8.65,1.59,23.53,27,6.5,-8.875,3.4375,-33.25,282.25,-0.745667,0.200317,-0.206543,-0.600952
357.375,59.625,-74.0625,-7.89,1.59,23.53,27,6.5,-8.875,3.4375,-33.25,282.25,-0.745667,0.200317,-0.206543,-0.600952
341.75,57.25,-76.8125,-7.1,1.52,23.5,29,2.375,-6.5,0.625,-33.8125,284,-0.754028,0.182983,-0.226135,-0.588928
324.312,54.5625,-74.125,-6.9,0.87,22.33,29,2.375,-6.5,-4.5,-34.875,287.25,-0.767578,0.150513,-0.261902,-0.565308
308.375,53.6875,-67.125,-6.88,0.46,20.41,29,2.375,-6.5,-7,-35.5,288.688,-0.772644,0.135254,-0.27887,-0.554016
296.25,56.5,-58.6875,-7.17,0.51,19.67,29,2.375,-6.5,-9.5,-36.125,290.062,-0.776672,0.120483,-0.295776,-0.542969
288.375,62.1875,-51.5,-7.52,0.51,19.67,29,2.375,-6.5,-9.5,-36.125,290.062,-0.776672,0.120483,-0.295776,-0.542969
283.125,69.0625,-48.8125,-8.01,0.67,19.14,28.1875,1.6875,-5.75,-12,-36.875,291.375,-0.779785,0.106262,-0.312683,-0.53186
276.562,75.3125,-52.4375,-8.25,0.79,19.03,28.1875,1.6875,-5.75,-16.75,-38.625,294.125,-0.784668,0.0805054,-0.34613,-0.507996
266.625,82.6875,-61.25,-8.33,0.38,19.33,28.1875,1.6875,-5.75,-18.8125,-39.6875,295.625,-0.786743,0.0697021,-0.362122,-0.495056
251.188,87.5,-73,-8.22,0.05,18.6,28.1875,1.6875,-5.75,-20.625,-40.75,297.125,-0.788879,0.0606079,-0.376892,-0.481628
231.312,86.4375,-85.9375,-8.02,0.05,18.6,28.1875,1.6875,-5.75,-20.625,-40.75,297.125,-0.788879,0.0606079,-0.376892,-0.481628
212.812,82,-99.5,-7.75,-0.08,17.46,28.5625,3.0625,-5.375,-22.1875,-41.8125,298.812,-0.791199,0.0529175,-0.390442,-0.467712
199.375,79,-114.562,-7.47,0.11,13.93,28.5625,3.0625,-5.375,-24.5,-44.1875,302.438,-0.796753,0.0410767,-0.414978,-0.437317
191.688,78.1875,-130.875,-7.37,0.37,13.3,28.5625,3.0625,-5.375,-25.375,-45.5,304.5,-0.799866,0.0365601,-0.426758,-0.42041
188.062,80.6875,-147.812,-7.3,0.71,12.92,28.5625,3.0625,-5.375,-26.0625,-46.9375,306.75,-0.802917,0.0328979,-0.43866,-0.402222
186.938,87.125,-164.25,-7.21,0.71,12.92,28.5625,3.0625,-5.375,-26.0625,-46.9375,306.75,-0.802917,0.0328979,-0.43866,-0.402222
187.312,92.75,-179.812,-6.96,1.51,12.5,29.75,3.75,-3.375,-26.5625,-48.5,309.188,-0.805908,0.0300293,-0.450684,-0.38269
186.75,92.9375,-192.062,-6.24,1.62,12.15,29.75,3.75,-3.375,-27.125,-51.8125,314.375,-0.811523,0.0254517,-0.473938,-0.340881
187.625,93.3125,-200.062,-5.59,1.58,11.26,29.75,3.75,-3.375,-27.1875,-53.5625,317.188,-0.813782,0.0233765,-0.485291,-0.318909
189.75,94.1875,-204.75,-4.82,1.51,11.2,29.75,3.75,-3.375,-27.125,-55.25,320,-0.815674,0.0212402,-0.496216,-0.296631
190.25,93,-206.812,-4.67,1.51,11.2,29.75,3.75,-3.375,-27.125,-55.25,320,-0.815674,0.0212402,-0.496216,-0.296631
188.188,90.375,-207.312,-4.65,1.39,11.16,29.0625,7.75,-2.875,-26.875,-56.9375,322.875,-0.817139,0.0192261,-0.506653,-0.274231
183.625,89.5,-208.688,-4.71,0.92,10.79,29.0625,7.75,-2.875,-25.625,-60.3125,328.688,-0.818787,0.0164795,-0.526123,-0.229126
177.125,90.1875,-211.938,-4.62,0.82,10.51,29.0625,7.75,-2.875,-24.5,-62,331.688,-0.818848,0.0161133,-0.535339,-0.20636
170.438,92.4375,-217.062,-4.35,0.7,10.11,29.0625,7.75,-2.875,-22.9375,-63.75,334.688,-0.81842,0.0164795,-0.544373,-0.183411
163.938,95.3125,-222.25,-3.95,0.7,10.11,29.0625,7.75,-2.875,-22.9375,-63.75,334.688,-0.81842,0.0164795,-0.544373,-0.183411
159.062,96.4375,-225.688,-3.41,0.45,9.56,28.6875,12.5625,-2.1875,-21,-65.4375,337.75,-0.817444,0.017334,-0.552979,-0.160278
156.5,94.0625,-226.312,-2.85,0,9.07,28.6875,12.5625,-2.1875,-15.5,-68.4375,344,-0.814697,0.0193481,-0.568237,-0.114197
155.062,84.9375,-224.5,-2.84,-0.32,9.1,28.6875,12.5625,-2.1875,-12,-69.625,347.125,-0.813477,0.0199585,-0.573975,-0.0914307
154.25,69.25,-221.125,-2.75,-0.7,9.05,28.6875,12.5625,-2.1875,-8.0625,-70.4375,350.25,-0.812805,0.0202637,-0.578125,-0.0690308
154,50.25,-215.938,-2.69,-0.7,9.05,28.6875,12.5625,-2.1875,-8.0625,-70.4375,350.25,-0.812805,0.0202637,-0.578125,-0.0690308
155.562,31.5625,-210.688,-2.78,-1.5,9.03,25.6875,16.6875,-2.5,-3.8125,-71,353.375,-0.812561,0.0200195,-0.580688,-0.046875
154.938,15.875,-206.125,-2.9,-2.22,10.11,25.6875,16.6875,-2.5,4.8125,-71.125,359.438,-0.812866,0.0194702,-0.582092,-0.00384521
147.812,5,-203.625,-3.05,-3.16,10.3,25.6875,16.6875,-2.5,9.125,-70.875,2.3125,-0.813171,0.0202026,-0.581421,0.0166016
134.125,-3.375,-202.25,-3.07,-3.52,10.43,25.6875,16.6875,-2.5,13.375,-70.375,5.0625,-0.813416,0.0219727,-0.580078,0.0361938
117.688,-10.4375,-201.125,-3.09,-3.52,10.43,25.6875,16.6875,-2.5,13.375,-70.375,5.0625,-0.813416,0.0219727,-0.580078,0.0361938
100.375,-18,-199.688,-3.07,-3.92,10.63,23.1875,21.0625,-4.1875,17.4375,-69.6875,7.6875,-0.813782,0.0249023,-0.578064,0.0548096
82.9375,-24.8125,-196.812,-2.81,-4.41,10.85,23.1875,21.0625,-4.1875,24.5625,-67.875,12.375,-0.814392,0.0338745,-0.572571,0.0884399
65.125,-28.6875,-190.062,-2.08,-5.76,11.86,23.1875,21.0625,-4.1875,27.5,-66.875,14.375,-0.814514,0.0396118,-0.56958,0.102844
45.125,-30.125,-178.375,-1.82,-6.12,12.4,23.1875,21.0625,-4.1875,30.125,-65.8125,16.0625,-0.814575,0.0461426,-0.566711,0.114929
22.5625,-30.3125,-162.188,-1.64,-6.12,12.4,23.1875,21.0625,-4.1875,30.125,-65.8125,16.0625,-0.814575,0.0461426,-0.566711,0.114929
-2.75,-29.0625,-143.438,-1.44,-6.51,12.92,18.6875,24.375,-7.375,32.4375,-64.875,17.3125,-0.814514,0.0535278,-0.564087,0.124451
-30.6875,-27.4375,-122.062,-1.21,-7.11,13.56,18.6875,24.375,-7.375,34.5,-64,18.25,-0.814026,0.0709229,-0.560364,0.135071
-60.625,-24.5,-99.375,-1.17,-7.01,13.95,18.6875,24.375,-7.375,38.1875,-62.625,18.9375,-0.813477,0.0810547,-0.559631,0.135925
-91,-19,-77,-1.08,-6.85,14.16,18.6875,24.375,-7.375,40,-62.25,18.6875,-0.8125,0.092041,-0.559875,0.133789
-121.688,-11.1875,-53.9375,-0.87,-6.85,14.16,18.6875,24.375,-7.375,40,-62.25,18.6875,-0.8125,0.092041,-0.559875,0.133789
-153.188,-5.5625,-29.0625,-0.8,-5.98,13.66,15,27.25,-7.75,43.625,-62,16.75,-0.809692,0.117249,-0.562561,0.119324
-182.875,-2.125,-3.875,-0.9,-5.6,13.25,15,27.25,-7.75,45.375,-62.125,15.1875,-0.807678,0.130493,-0.564758,0.108032
-207.875,0.25,20.3125,-1.06,-4.76,12.4,15,27.25,-7.75,47.0625,-62.4375,13.3125,-0.805298,0.144043,-0.567322,0.0941772
-228.875,1.9375,42.6875,-1.31,-4.31,12.05,15,27.25,-7.75,48.6875,-62.875,11.0625,-0.80249,0.157776,-0.570129,0.078064
-247.062,2.5,63.1875,-1.35,-4.31,12.05,15,27.25,-7.75,48.6875,-62.875,11.0625,-0.80249,0.157776,-0.570129,0.078064
-262.562,3.0625,82.25,-1.32,-3.96,11.55,15,28.5,-4.5,50.25,-63.5,8.5625,-0.799194,0.171509,-0.572998,0.0598755
-276.375,2.3125,101.188,-1.22,-3.6,10.92,15,28.5,-4.5,53,-65.1875,2.5,-0.790955,0.198669,-0.57843,0.0175171
-288.5,-0.9375,120.375,-1.39,-2.09,9.01,15,28.5,-4.5,54,-66.25,359.062,-0.786133,0.211792,-0.580566,-0.00634766
-298.25,-5.625,137.812,-1.59,-1.59,8.31,15,28.5,-4.5,54.75,-67.375,355.312,-0.780884,0.224487,-0.582092,-0.0316772
-305.5,-12.4375,152.312,-1.89,-1.59,8.31,15,28.5,-4.5,54.75,-67.375,355.312,-0.780884,0.224487,-0.582092,-0.0316772
-310.75,-22.875,164.062,-2.26,-1.17,7.67,16.0625,28.5,1.0625,55.0625,-68.5625,351.375,-0.77533,0.236755,-0.582581,-0.0581665
-312.75,-34.5,171.438,-3.12,-0.45,6.76,16.0625,28.5,1.0625,54.125,-70.8125,347.312,-0.763611,0.259827,-0.580139,-0.113037
-312.812,-45,174.438,-3.3,-0.11,6.17,16.0625,28.5,1.0625,52.9375,-71.875,338.938,-0.757324,0.270752,-0.577393,-0.140686
-311.625,-52.3125,174.812,-3.44,0.26,5.88,16.0625,28.5,1.0625,51.3125,-72.875,334.688,-0.750671,0.281311,-0.573669,-0.168213
-310.312,-58.5625,173.938,-3.52,0.65,5.88,16.0625,28.5,1.0625,51.3125,-72.875,334.688,-0.750671,0.281311,-0.573669,-0.168213
-308.125,-62.25,172.25,-3.37,1.38,5.56,19.0625,24,8.75,49.125,-73.8125,330.5,-0.743591,0.291443,-0.569153,-0.195435
-304.875,-65,171.125,-3.26,1.73,5.55,19.0625,24,8.75,43.25,-75.3125,322.188,-0.728149,0.310242,-0.558105,-0.249023
-300.688,-69.8125,171.5,-3.12,2.02,6.03,19.0625,24,8.75,39.25,-75.8125,318.062,-0.720093,0.31842,-0.551392,-0.275635
-295.938,-78.25,175,-3,2.37,6.4,19.0625,24,8.75,34.3125,-76.1875,313.938,-0.711914,0.325439,-0.543945,-0.302429
-289.75,-88.1875,181.062,-3.26,2.56,6.4,19.0625,24,8.75,34.3125,-76.1875,313.938,-0.711914,0.325439,-0.543945,-0.302429
-283.688,-97.5625,188,-3.6,2.8,6.91,22.375,18.5,14.0625,28.6875,-76.375,309.812,-0.70343,0.331177,-0.535767,-0.329285
-280.125,-106.688,193.5,-4.04,3.04,7.48,22.375,18.5,14.0625,16.625,-76.25,305.688,-0.685608,0.340149,-0.517029,-0.383362
-280.938,-113.125,196.438,-5.05,3.63,8.93,22.375,18.5,14.0625,11.1875,-75.1875,297.438,-0.67572,0.344116,-0.506592,-0.410217
-284,-114.562,196.562,-5.51,3.86,9.32,22.375,18.5,14.0625,6.4375,-74.4375,293.375,-0.6651,0.348206,-0.495728,-0.436646
-287.875,-111.125,194.438,-5.88,4.03,9.32,22.375,18.5,14.0625,6.4375,-74.4375,293.375,-0.6651,0.348206,-0.495728,-0.436646
-290.625,-105.25,191.875,-6.18,4.27,9.77,25.375,10.6875,14.875,2.5,-73.5625,289.375,-0.653564,0.352478,-0.484497,-0.462524
-291.438,-99.375,188.688,-6.89,4.71,10.83,25.375,10.6875,14.875,-3.3125,-71.625,281.625,-0.628418,0.360962,-0.461121,-0.511963
-291.25,-97,185.438,-7.41,4.88,12.93,25.375,10.6875,14.875,-5.375,-70.5625,277.875,-0.615295,0.36499,-0.448669,-0.535645
-291.438,-97.9375,180.812,-8.09,5.02,14.1,25.375,10.6875,14.875,-6.875,-69.375,274.25,-0.601868,0.368958,-0.435242,-0.558716
-294.25,-101.438,174.438,-8.79,5.15,14.1,25.375,10.6875,14.875,-6.875,-69.375,274.25,-0.601868,0.368958,-0.435242,-0.558716
-300.188,-107.625,166.875,-10.36,5.33,15.52,28.0625,2.5625,14.5,-7.75,-68.125,270.625,-0.588318,0.372803,-0.420593,-0.58136
-308.375,-117.188,157.375,-11.32,5.54,16.01,28.0625,2.5625,14.5,-7.75,-65.375,267.188,-0.561401,0.38031,-0.386414,-0.625183
-317.062,-128.25,144.812,-12.3,5.91,17.04,28.0625,2.5625,14.5,-6.8125,-63.9375,260.625,-0.548401,0.384094,-0.366699,-0.645996
-325.375,-137.625,128.625,-13.6,6.87,17.16,28.0625,2.5625,14.5,-5.4375,-62.4375,257.625,-0.535645,0.388062,-0.345276,-0.665771
-333.25,-143.562,111.562,-13.83,7.21,17.16,28.0625,2.5625,14.5,-5.4375,-62.4375,257.625,-0.535645,0.388062,-0.345276,-0.665771
-339.812,-145.5,96.625,-14.09,7.49,16.98,29.875,-5.1875,12.0625,-3.6875,-60.9375,254.75,-0.523071,0.392212,-0.322571,-0.684509
-343.25,-143.125,84.375,-14.6,7.69,16.69,29.875,-5.1875,12.0625,0.4375,-58.125,249.438,-0.497864,0.40094,-0.275024,-0.71814
-342.438,-140.625,74.1875,-15.68,7.69,15.94,29.875,-5.1875,12.0625,2.625,-56.8125,247,-0.485535,0.405029,-0.250793,-0.733032
-337.188,-138.938,64.125,-16.51,7.63,15.76,29.875,-5.1875,12.0625,5,-55.5,244.75,-0.473816,0.408691,-0.226257,-0.746521
-330.5,-138.688,50.5625,-17.08,7.55,15.76,29.875,-5.1875,12.0625,5,-55.5,244.75,-0.473816,0.408691,-0.226257,-0.746521
-322,-135.188,33.0625,-17.36,7.41,15.72,28.75,-9.875,6,7.4375,-54.25,242.812,-0.463013,0.412231,-0.201599,-0.758301
-314.062,-125.312,14.1875,-16.91,6.86,16.44,28.75,-9.875,6,10.0625,-53.0625,241,-0.443787,0.42041,-0.152405,-0.77655
-310.312,-114.312,-1.3125,-16.43,6.47,16.58,28.75,-9.875,6,15.625,-51,238,-0.434631,0.425293,-0.127747,-0.783508
-310.5,-103,-10.625,-16.03,6.33,16.15,28.75,-9.875,6,18.4375,-50.125,236.625,-0.425293,0.430725,-0.103271,-0.789246
-310.438,-89.75,-14.9375,-15.83,6.28,16.15,28.75,-9.875,6,18.4375,-50.125,236.625,-0.425293,0.430725,-0.103271,-0.789246
-307.938,-74.5,-16.4375,-15.65,6.05,15.22,28.75,-11.75,-0.0625,21.3125,-49.375,235.25,-0.41571,0.436829,-0.0794678,-0.793762
-303.125,-57.3125,-17.4375,-15.66,5.9,14.75,28.75,-11.75,-0.0625,27.0625,-48.375,232.75,-0.39624,0.45105,-0.0344849,-0.79895
-295.562,-38.5625,-19.5625,-15.57,5.84,14.69,28.75,-11.75,-0.0625,29.9375,-48.125,231.562,-0.38678,0.459167,-0.0134888,-0.799622
-288,-21.5625,-22.9375,-15.43,5.69,14.49,28.75,-11.75,-0.0625,32.875,-47.875,230.5,-0.37738,0.467712,0.00689697,-0.799255
-282.375,-8.875,-25.125,-14.99,5.51,14.49,28.75,-11.75,-0.0625,32.875,-47.875,230.5,-0.37738,0.467712,0.00689697,-0.799255
-280.312,-1.0625,-26.625,-14.99,5.62,14.04,28.75,-11,-4.5,35.8125,-47.75,229.5,-0.368042,0.476379,0.0268555,-0.798035
-279.438,7.0625,-30.5625,-14.98,5.69,13.28,28.75,-11,-4.5,38.8125,-47.625,228.5,-0.358765,0.485352,0.0466919,-0.792664
-276.5,18.9375,-38.8125,-14.52,5.42,10.95,28.75,-11,-4.5,45.1875,-47.4375,226.875,-0.342163,0.504456,0.0853882,-0.788147
-269.312,32.875,-49.3125,-13.96,5,10.37,28.75,-11,-4.5,48.4375,-47.3125,226.375,-0.335327,0.514465,0.103821,-0.782349
-258.875,46.0625,-59.5625,-13.45,4.64,10.37,28.75,-11,-4.5,48.4375,-47.3125,226.375,-0.335327,0.514465,0.103821,-0.782349
-245.625,60.875,-69.1875,-12.85,4.4,9.95,29.5625,-8.0625,-8.6875,51.8125,-47.1875,226.062,-0.329712,0.524719,0.121277,-0.775452
-230.312,78.5,-78,-11.93,3.71,9.81,29.5625,-8.0625,-8.6875,58.5625,-47,225.938,-0.322083,0.546326,0.152832,-0.757874
-216.438,95.1875,-85.0625,-11.54,3.42,10.11,29.5625,-8.0625,-8.6875,62,-46.5625,226.25,-0.319641,0.557495,0.167297,-0.747681
-206.562,106.562,-90.1875,-11.03,3.08,9.98,29.5625,-8.0625,-8.6875,65.375,-46.25,226.625,-0.317749,0.568726,0.181213,-0.736694
-199.938,115.562,-94.5625,-10.55,2.94,9.98,29.5625,-8.0625,-8.6875,65.375,-46.25,226.625,-0.317749,0.568726,0.181213,-0.736694
-194.938,122.125,-98.9375,-9.95,2.78,9.37,29.875,-4,-7,68.8125,-45.8125,227.125,-0.316345,0.579895,0.194763,-0.725037
-191,125.688,-104.438,-9.73,2.63,8.73,29.875,-4,-7,72.1875,-45.3125,227.688,-0.315369,0.590881,0.221558,-0.700073
-186.562,125.812,-111.062,-9.57,2.5,7.36,29.875,-4,-7,78.5625,-43.75,229.25,-0.315125,0.611267,0.234863,-0.686951
-179.5,126.938,-119.438,-9.27,2.26,6.17,29.875,-4,-7,81.625,-42.75,230.312,-0.316406,0.620667,0.24762,-0.673279
-168.312,131.188,-127.625,-8.67,1.28,6.17,29.875,-4,-7,81.625,-42.75,230.312,-0.316406,0.620667,0.24762,-0.673279
-153.688,139.438,-135.125,-8.3,0.73,5.68,29.5625,-0.25,-3.75,84.4375,-41.625,231.625,-0.318848,0.629761,0.259705,-0.658997
-137.438,149.938,-141.125,-8.09,0.38,5.35,29.5625,-0.25,-3.75,89.625,-39,233.188,-0.327637,0.647156,0.280884,-0.628479
-122.312,160.625,-146.688,-7.5,0.12,4.63,29.5625,-0.25,-3.75,92,-37.5,237.188,-0.333679,0.655518,0.290222,-0.612122
-109.875,171.438,-152.312,-7.26,0.05,4.4,29.5625,-0.25,-3.75,94.1875,-35.875,239.562,-0.340698,0.663574,0.29895,-0.595154
-99.25,180.062,-158.125,-6.86,0.01,4.4,29.5625,-0.25,-3.75,94.1875,-35.875,239.562,-0.340698,0.663574,0.29895,-0.595154
-89.6875,186.625,-163.688,-6.36,-0.06,4.3,29.875,3.75,-0.5625,96.1875,-34.125,242.188,-0.348511,0.671265,0.30719,-0.577576
-81.6875,194.312,-168,-5.41,-0.25,4.09,29.875,3.75,-0.5625,98.0625,-32.25,245.062,-0.357056,0.678589,0.314941,-0.559326
-75.5,201.625,-170.625,-4.93,-0.4,3.53,29.875,3.75,-0.5625,101.438,-28.3125,251.5,-0.375366,0.692566,0.328552,-0.521057
-69.6875,209.25,-170.25,-4.47,-0.63,3.07,29.875,3.75,-0.5625,102.938,-26.3125,255.062,-0.384949,0.699341,0.334167,-0.501038
-63.5,218.312,-167.625,-4.18,-0.88,3.07,29.875,3.75,-0.5625,102.938,-26.3125,255.062,-0.384949,0.699341,0.334167,-0.501038
-56,228,-164.312,-3.81,-1.13,2.72,30.25,7.5,4.0625,104.312,-24.25,258.812,-0.394958,0.705994,0.338745,-0.48053
-48.5,239.312,-161.438,-3.68,-1.15,2.73,30.25,7.5,4.0625,106.75,-22.125,262.812,-0.415955,0.718811,0.34491,-0.4375
-43.75,249,-159.125,-3.41,-1.16,2.5,30.25,7.5,4.0625,107.812,-17.8125,271.5,-0.426575,0.724915,0.346741,-0.4151
-40.625,256.25,-156.375,-3.05,-1.24,1.99,30.25,7.5,4.0625,108.75,-15.5625,276.188,-0.437256,0.730713,0.347839,-0.392273
-36.375,262.875,-153.312,-2.64,-1.34,1.99,30.25,7.5,4.0625,108.75,-15.5625,276.188,-0.437256,0.730713,0.347839,-0.392273
-30.3125,268.312,-150.25,-2.25,-1.29,1.96,27.6875,12.6875,10.25,109.562,-13.375,281,-0.44812,0.736023,0.348083,-0.369141
-24.0625,274,-146.812,-1.88,-1.35,1.85,27.6875,12.6875,10.25,110.188,-11.125,286,-0.459106,0.740906,0.345886,-0.322083
-18.125,280,-141.938,-1.03,-1.45,1.43,27.6875,12.6875,10.25,111.188,-6.6875,296.375,-0.481201,0.749451,0.343262,-0.298218
-12.5625,286.438,-134.875,-0.78,-1.46,1.42,27.6875,12.6875,10.25,111.438,-4.5,301.75,-0.49231,0.753235,0.339355,-0.27417
-7.125,293.812,-126.25,-0.64,-1.47,1.42,27.6875,12.6875,10.25,111.438,-4.5,301.75,-0.49231,0.753235,0.339355,-0.27417
-1.3125,300,-116.812,-0.53,-1.45,1.55,23.6875,16,16.25,111.625,-2.375,307.125,-0.503296,0.756592,0.334229,-0.250061
3.0625,305.25,-107.562,-0.54,-1.34,1.78,23.6875,16,16.25,111.5,-0.3125,312.5,-0.524963,0.762146,0.320557,-0.201843
6.625,310.5,-99.4375,-0.61,-1.18,1.59,23.6875,16,16.25,111.312,3.5625,323.25,-0.5354,0.764282,0.312378,-0.177734
9.4375,313.312,-93.125,-0.66,-0.98,1.44,23.6875,16,16.25,111,5.4375,328.438,-0.545593,0.765808,0.30365,-0.15387
12.1875,312.312,-87.9375,-0.48,-0.7,1.44,23.6875,16,16.25,111,5.4375,328.438,-0.545593,0.765808,0.30365,-0.15387
16.6875,307.312,-82.375,0.19,-0.56,0.72,17.75,17.875,22.25,110.562,7.25,333.5,-0.55542,0.766663,0.294495,-0.130554
24.4375,300.875,-74.25,0.43,-0.51,0.41,17.75,17.875,22.25,110,8.9375,338.312,-0.565125,0.766724,0.284851,-0.0869141
36.75,294.438,-63.5,0.54,-0.35,0.04,17.75,17.875,22.25,108.188,11.875,346.938,-0.585327,0.763916,0.263367,-0.0669556
53.75,288.688,-52.25,0.54,-0.22,0.54,17.75,17.875,22.25,106.938,13.0625,350.75,-0.596436,0.760681,0.251526,-0.0481567
73.8125,284.312,-42.1875,0.15,-0.26,0.54,17.75,17.875,22.25,106.938,13.0625,350.75,-0.596436,0.760681,0.251526,-0.0481567
94.125,281.75,-34.625,-0.37,-0.17,1.11,11.0625,18.5625,25.5625,105.375,14.1875,354.25,-0.608459,0.756104,0.239075,-0.0302734
111.812,281.688,-33.0625,-1.02,-0.05,1.77,11.0625,18.5625,25.5625,103.625,15.125,357.625,-0.621155,0.742798,0.213623,0.00488281
127.188,285.562,-39.3125,-1.56,0.05,3.81,11.0625,18.5625,25.5625,99.5,17.1875,4.125,-0.648376,0.733887,0.201355,0.0234375
141.25,291.312,-53.3125,-2,0.13,4.44,11.0625,18.5625,25.5625,97.125,18.25,7.375,-0.662415,0.723328,0.190002,0.0429077
153.688,292.75,-71.9375,-1.82,0.16,4.44,11.0625,18.5625,25.5625,97.125,18.25,7.375,-0.662415,0.723328,0.190002,0.0429077
165,288.688,-91.6875,-1.35,0.19,5,4.5,20.75,25.1875,94.625,19.4375,10.625,-0.676514,0.711304,0.179993,0.0629883
175.625,281.062,-108.875,0.03,0.42,5.47,4.5,20.75,25.1875,91.9375,20.625,13.75,-0.690491,0.697815,0.171326,0.10376
187.562,271.875,-121.312,0.79,0.56,6.19,4.5,20.75,25.1875,86.125,23,19.5,-0.718079,0.666565,0.157349,0.123596
201.188,261.688,-127.812,1.41,0.68,6.95,4.5,20.75,25.1875,82.9375,24,22,-0.731812,0.648987,0.151611,0.142578
213.75,250.125,-128.5,1.9,0.84,6.95,4.5,20.75,25.1875,82.9375,24,22,-0.731812,0.648987,0.151611,0.142578
220.75,238.5,-124,2.71,1.01,8.48,-2.5625,23.75,22.25,79.6875,24.8125,24.25,-0.745117,0.630615,0.14624,0.1604
223,231.75,-115.125,3.15,1.02,9.25,-2.5625,23.75,22.25,76.375,25.4375,26.3125,-0.757996,0.592529,0.134338,0.193176
222.062,234.188,-102.75,3.45,0.97,10.64,-2.5625,23.75,22.25,69.75,25.875,29.8125,-0.782349,0.57312,0.126343,0.208496
218.562,244.375,-87.3125,3.6,0.9,11.79,-2.5625,23.75,22.25,66.4375,25.5625,31.375,-0.793884,0.553528,0.116455,0.223145
213.125,256.25,-69.5625,3.62,0.91,11.79,-2.5625,23.75,22.25,66.4375,25.5625,31.375,-0.793884,0.553528,0.116455,0.223145
208,268.938,-51.9375,3.48,0.77,12.65,-10.25,26.25,15.25,63.1875,24.9375,32.8125,-0.804932,0.533813,0.104736,0.237061
201.938,279.438,-34.8125,3.46,0.58,13.05,-10.25,26.25,15.25,60.125,23.9375,34.0625,-0.81543,0.513916,0.0913086,0.261902
194.062,281,-17.375,3.38,0.53,13.06,-10.25,26.25,15.25,54.5,21.125,36.125,-0.834595,0.474915,0.0615234,0.2724
186.625,279.062,-1.6875,2.59,0.7,12.97,-10.25,26.25,15.25,51.9375,19.5,36.9375,-0.843323,0.455322,0.0457764,0.281738
185,277.312,9.8125,2.27,0.57,12.97,-10.25,26.25,15.25,51.9375,19.5,36.9375,-0.843323,0.455322,0.0457764,0.281738
191.188,274.688,19.25,1.86,0.45,13.39,-13.6875,27.375,5.25,49.375,17.625,37.5625,-0.851868,0.435059,0.0300293,0.2901
202,269.938,27.625,0.53,0.45,15.61,-13.6875,27.375,5.25,46.9375,15.6875,38.125,-0.868469,0.391663,-0.000549316,0.303833
211.562,265.125,32.875,-0.1,0.47,17.46,-13.6875,27.375,5.25,42,11.625,38.9375,-0.87616,0.368835,-0.0152588,0.309937
217.312,261.688,33.125,-0.55,0.53,17.46,-13.6875,27.375,5.25,39.625,9.5625,39.3125,-0.883057,0.345703,-0.0294189,0.315979
219.688,256.562,29.1875,-0.8,0.57,17.78,-13.6875,27.375,5.25,39.625,9.5625,39.3125,-0.883057,0.345703,-0.0294189,0.315979
221.25,247.938,23.4375,-1.39,0.82,18.33,-15.5625,27.75,-2.375,37.25,7.5625,39.75,-0.88916,0.322388,-0.0426636,0.321838
222.812,235.812,16.625,-1.66,1.02,18.44,-15.5625,27.75,-2.375,35,5.625,40.1875,-0.894531,0.299072,-0.0547485,0.333557
225.375,221.5,9.25,-1.77,1.08,18.85,-15.5625,27.75,-2.375,30.4375,2,41.1875,-0.903076,0.252197,-0.0749512,0.339417
231.25,209.938,2.25,-1.84,1.01,18.85,-15.5625,27.75,-2.375,28.0625,0.375,41.6875,-0.906555,0.228149,-0.083252,0.345215
239.25,199.938,-1.75,-2.11,0.94,19.91,-15.5625,27.75,-2.375,28.0625,0.375,41.6875,-0.906555,0.228149,-0.083252,0.345215
245.625,189.812,-3.125,-2.26,1.03,20.5,-13.375,27.75,-10.1875,25.6875,-1.1875,42.125,-0.909546,0.203735,-0.0905151,0.350708
247.625,181.062,-3.9375,-2.46,1.19,21.09,-13.375,27.75,-10.1875,23.3125,-2.8125,42.625,-0.913818,0.155151,-0.103149,0.360901
244.688,176.75,-5.5625,-2.76,1.38,22.33,-13.375,27.75,-10.1875,18.75,-5.9375,43.5625,-0.914856,0.131531,-0.109253,0.365723
237.188,174.375,-7.8125,-3.53,1.62,22.33,-13.375,27.75,-10.1875,16.625,-7.4375,44.0625,-0.915222,0.108765,-0.115295,0.370544
227.25,171.062,-11.4375,-3.65,1.59,21.86,-13.375,27.75,-10.1875,16.625,-7.4375,44.0625,-0.915222,0.108765,-0.115295,0.370544
218.5,166.625,-16.125,-3.72,1.6,21.27,-12.25,24.875,-19.5,14.625,-9,44.5625,-0.914856,0.086792,-0.121155,0.375305
214.125,162.438,-21.3125,-4.15,1.8,20.47,-12.25,24.875,-19.5,12.625,-10.4375,45.1875,-0.913818,0.0653076,-0.131775,0.385376
213,155.938,-26.375,-4.35,1.87,19.99,-12.25,24.875,-19.5,8.75,-13.25,46.4375,-0.910156,0.0231934,-0.135986,0.390625
214,147.625,-31.875,-4.6,1.92,19.99,-12.25,24.875,-19.5,6.8125,-14.5,47.125,-0.907471,0.00250244,-0.139465,0.39624
215.375,139.062,-38.3125,-4.86,2.02,19.81,-12.25,24.875,-19.5,6.8125,-14.5,47.125,-0.907471,0.00250244,-0.139465,0.39624
216.125,132.562,-46.3125,-5.2,2.25,19.57,-10.75,21.25,-24.5625,4.875,-15.75,47.9375,-0.904175,-0.0180054,-0.142395,0.402283
216.375,128.312,-54.9375,-5.31,2.25,19.57,-10.75,21.25,-24.5625,2.9375,-16.9375,48.8125,-0.89563,-0.0581055,-0.147156,0.415771
215.438,125.312,-63.9375,-5.46,2.14,19.56,-10.75,21.25,-24.5625,-0.6875,-19.3125,50.8125,-0.890259,-0.0776978,-0.149353,0.423218
213.5,123.938,-72.625,-5.62,2.03,19.56,-10.75,21.25,-24.5625,-2.4375,-20.5625,51.9375,-0.884216,-0.0968628,-0.15155,0.431091
210.312,123.188,-81.125,-5.94,1.87,19.44,-10.75,21.25,-24.5625,-2.4375,-20.5625,51.9375,-0.884216,-0.0968628,-0.15155,0.431091
205.812,122.125,-89.6875,-6.11,1.81,19.29,-8.25,16.0625,-29,-4.125,-21.8125,53.1875,-0.877502,-0.11554,-0.153931,0.439331
200.812,121.438,-98.375,-6.22,1.79,19.11,-8.25,16.0625,-29,-5.75,-23.0625,54.4375,-0.870117,-0.133606,-0.156372,0.447937
196.125,122.062,-107.125,-6.24,1.83,18.92,-8.25,16.0625,-29,-8.625,-25.6875,57.25,-0.853271,-0.168274,-0.162109,0.466187
191.688,123,-115.438,-6.29,1.54,18.92,-8.25,16.0625,-29,-10,-27,58.8125,-0.843933,-0.184814,-0.165161,0.475708
186.875,121.375,-122.25,-6.3,1.28,18.89,-8.25,16.0625,-29,-10,-27,58.8125,-0.843933,-0.184814,-0.165161,0.475708
181.375,117.75,-128.688,-6.41,1.07,18.81,-6.375,10.1875,-31.75,-11.1875,-28.375,60.375,-0.834106,-0.200684,-0.168274,0.485474
175.25,115.188,-136,-6.74,0.63,18.61,-6.375,10.1875,-31.75,-12.3125,-29.75,62,-0.82373,-0.230042,-0.174927,0.505859
168.5,113.438,-145.375,-6.8,0.49,18.5,-6.375,10.1875,-31.75,-14.0625,-32.5,65.625,-0.801086,-0.243591,-0.178711,0.516663
161.25,112.312,-156,-6.87,0.31,18.35,-6.375,10.1875,-31.75,-14.6875,-33.9375,67.5625,-0.788818,-0.256226,-0.182922,0.527893
153.312,110.688,-167,-6.86,0.2,18.21,-6.375,10.1875,-31.75,-14.6875,-33.9375,67.5625,-0.788818,-0.256226,-0.182922,0.527893
145.375,108.125,-178.312,-6.82,-0.11,18,-3.375,5.375,-34.25,-15.125,-35.4375,69.625,-0.775879,-0.267883,-0.187439,0.539551
137,104.438,-189.062,-6.72,-0.26,17.72,-3.375,5.375,-34.25,-15.375,-36.875,71.75,-0.762329,-0.278564,-0.192322,0.551636
127.938,99.25,-199.875,-6.62,-0.38,17.41,-3.375,5.375,-34.25,-15.125,-39.75,76.375,-0.733459,-0.29657,-0.20282,0.576965
118.75,94.875,-211.312,-6.41,-0.55,17.15,-3.375,5.375,-34.25,-14.625,-41.125,78.8125,-0.71814,-0.303955,-0.208679,0.59021
109.5,91.6875,-222.875,-5.89,-1.01,16.82,-3.375,5.375,-34.25,-14.625,-41.125,78.8125,-0.71814,-0.303955,-0.208679,0.59021
100.562,88.8125,-232.812,-5.62,-1.21,16.69,-1.5625,1.6875,-35,-13.8125,-42.5625,81.3125,-0.702209,-0.310303,-0.214966,0.603699
92,85.5625,-240.125,-5.32,-1.37,16.55,-1.5625,1.6875,-35,-12.75,-43.875,83.9375,-0.685791,-0.320068,-0.228516,0.630615
82.9375,81.6875,-245.5,-5.12,-1.55,16.59,-1.5625,1.6875,-35,-9.8125,-46.3125,89.25,-0.652222,-0.323303,-0.235657,0.64386
71.9375,76.5,-249.25,-4.7,-1.79,16.72,-1.5625,1.6875,-35,-7.9375,-47.375,91.875,-0.635315,-0.325256,-0.243225,0.65686
58.1875,70.625,-252.438,-4.51,-1.85,16.81,-1.5625,1.6875,-35,-7.9375,-47.375,91.875,-0.635315,-0.325256,-0.243225,0.65686
41.125,64.125,-254.938,-3.98,-1.96,16.77,1.375,-2.375,-35,-5.6875,-48.3125,94.5,-0.618591,-0.325684,-0.251343,0.669434
21.625,57.25,-255.312,-3.11,-2.28,16.17,1.375,-2.375,-35,-3.125,-49.0625,97.0625,-0.602173,-0.324524,-0.260071,0.681519
2.6875,52.3125,-253.125,-2.78,-2.38,16.06,1.375,-2.375,-35,2.625,-50.0625,101.875,-0.57074,-0.318604,-0.27948,0.703308
-13.75,50.4375,-249.312,-2.48,-2.49,16.19,1.375,-2.375,-35,5.75,-50.375,104.125,-0.555664,-0.314392,-0.290161,0.712891
-28.875,51.25,-244,-2.24,-2.75,16.26,1.375,-2.375,-35,5.75,-50.375,104.125,-0.555664,-0.314392,-0.290161,0.712891
-43.75,51.3125,-236.812,-1.63,-3.32,16.23,3.5625,-3.5,-33.375,9,-50.5625,106.188,-0.541199,-0.30957,-0.301392,0.721375
-56.875,50.8125,-228.562,-1.36,-3.5,16.32,3.5625,-3.5,-33.375,12.3125,-50.625,108.188,-0.527344,-0.304199,-0.325195,0.735474
-68.875,50,-220.062,-0.93,-3.64,16.71,3.5625,-3.5,-33.375,19,-50.4375,111.75,-0.501648,-0.291992,-0.337769,0.740906
-83.0625,50.75,-210.875,-0.33,-3.63,17.37,3.5625,-3.5,-33.375,22.4375,-50.25,113.25,-0.490173,-0.285278,-0.351379,0.744873
-103.688,53.5625,-198.125,1.26,-3.8,18.01,3.5625,-3.5,-33.375,22.4375,-50.25,113.25,-0.490173,-0.285278,-0.351379,0.744873
-130.625,52.5625,-177.875,1.78,-4.05,17.72,5.1875,-0.5625,-33.75,25.8125,-50.0625,114.438,-0.48053,-0.277832,-0.365967,0.746948
-159,47.3125,-150.188,1.84,-4.15,17.25,5.1875,-0.5625,-33.75,29.125,-49.75,115.25,-0.473206,-0.269653,-0.381409,0.746887
-183.875,39.6875,-120.188,1.6,-4.07,16.71,5.1875,-0.5625,-33.75,35.375,-49.25,115.625,-0.466003,-0.251709,-0.413269,0.740723
-203.188,31.625,-92,0.52,-3.66,15.87,5.1875,-0.5625,-33.75,38.25,-49.0625,115.625,-0.465271,-0.24231,-0.429321,0.735168
-218.125,26.375,-69.1875,0.27,-3.48,15.86,5.1875,-0.5625,-33.75,38.25,-49.0625,115.312,-0.465271,-0.24231,-0.429321,0.735168
-230.562,27.3125,-51.75,0.24,-3.43,15.92,6.25,3.5625,-33.75,41.125,-48.9375,114.75,-0.465698,-0.233032,-0.445679,0.728149
-244.75,34.375,-36.5625,0.05,-3.39,15.67,6.25,3.5625,-33.75,44.0625,-48.9375,114,-0.466858,-0.224121,-0.48053,0.709167
-261.375,41.25,-20.875,-0.28,-3.39,15.48,6.25,3.5625,-33.75,50.1875,-49.3125,111.812,-0.471619,-0.206848,-0.498962,0.697021
-278.75,45.375,-5.0625,-0.74,-3.34,15.1,6.25,3.5625,-33.75,53.4375,-49.6875,110.312,-0.475159,-0.198181,-0.517883,0.683228
-294.562,47.125,9.0625,-1.31,-3.24,14.63,6.25,3.5625,-33.75,53.4375,-49.6875,110.312,-0.475159,-0.198181,-0.517883,0.683228
-307.062,45.9375,20.1875,-2.26,-2.88,13.46,7.375,10.5625,-31.6875,56.6875,-50.125,108.625,-0.479309,-0.189331,-0.536926,0.667969
-316,41.625,27.8125,-2.73,-2.82,12.76,7.375,10.5625,-31.6875,60,-50.5625,106.75,-0.483826,-0.180115,-0.555786,0.651611
-320.625,37.75,31,-3.22,-2.72,12.3,7.375,10.5625,-31.6875,66.625,-51.375,102.75,-0.492798,-0.160461,-0.592285,0.616943
-320.938,34.75,29.1875,-3.49,-2.62,12.13,7.375,10.5625,-31.6875,70,-51.75,102.75,-0.496582,-0.149963,-0.609741,0.599243
-320.25,32.25,24.125,-3.83,-2.6,11.49,7.375,10.5625,-31.6875,70,-51.75,100.688,-0.496582,-0.149963,-0.609741,0.599243
-318.938,28.625,17.4375,-3.86,-2.6,11.37,8.875,18.375,-28,73.375,-51.9375,98.625,-0.499878,-0.138855,-0.626648,0.581543
-315.75,25.125,9.8125,-3.74,-2.58,11.33,8.875,18.375,-28,76.6875,-52.125,96.5625,-0.502563,-0.127258,-0.658447,0.546387
-312,23,2.875,-3.62,-2.6,11.19,8.875,18.375,-28,83.1875,-52.1875,92.5,-0.506287,-0.102783,-0.673279,0.528931
-308.75,19.1875,-2.25,-3.64,-2.59,10.62,8.875,18.375,-28,86.3125,-52.125,92.5,-0.507751,-0.0899048,-0.687256,0.511597
-304.688,12.4375,-6.4375,-3.86,-2.64,10.4,8.875,18.375,-28,86.3125,-52.125,90.4375,-0.507751,-0.0899048,-0.687256,0.511597
-298.812,3.3125,-11.5,-4.05,-2.69,10.3,9.25,24.25,-21.1875,89.25,-52.0625,88.3125,-0.509155,-0.0765381,-0.700195,0.494568
-293.062,-6.875,-18.0625,-4.15,-2.63,10.23,9.25,24.25,-21.1875,92,-51.875,86.1875,-0.510559,-0.062561,-0.712036,0.477905
-288.75,-17.3125,-25.8125,-3.99,-2.39,9.86,9.25,24.25,-21.1875,97,-51.3125,81.875,-0.513245,-0.0323486,-0.732788,0.445557
-286.438,-26.5625,-33.3125,-3.77,-2.17,9.5,9.25,24.25,-21.1875,99.25,-51.3125,81.875,-0.514526,-0.0161743,-0.741943,0.429626
-285.438,-35.1875,-40.5,-3.53,-1.98,9.23,9.25,24.25,-21.1875,99.25,-51,79.6875,-0.514526,-0.0161743,-0.741943,0.429626
-284.062,-41.8125,-45.9375,-2.81,-1.81,9.33,9.375,29.0625,-15.0625,101.438,-50.625,77.4375,-0.515686,0.000610352,-0.750244,0.413757
-282.625,-46.25,-47.6875,-2.48,-1.75,9.18,9.375,29.0625,-15.0625,103.5,-50.25,75.125,-0.516785,0.0175171,-0.757874,0.397766
-283.188,-51.5,-44.5,-2.15,-1.58,9,9.375,29.0625,-15.0625,107.5,-49.8125,70,-0.519775,0.0512085,-0.771057,0.364197
-286.125,-60.375,-35.25,-1.96,-1.43,8.66,9.375,29.0625,-15.0625,109.5,-49.8125,70,-0.522156,0.0673828,-0.776611,0.345947
-288.938,-68.3125,-22.125,-2.15,-1.18,8.14,9.375,29.0625,-15.0625,109.5,-49.8125,67,-0.522156,0.0673828,-0.776611,0.345947
-291,-74.1875,-8.9375,-2.31,-0.98,7.99,8.5625,31.75,-7.375,111.438,-50,63.75,-0.524963,0.0829468,-0.781555,0.326721
-293.938,-78.1875,3.1875,-2.54,-0.71,7.99,8.5625,31.75,-7.375,113.5,-50.3125,60.25,-0.527954,0.0979004,-0.78595,0.306519
-297.938,-78.25,13,-2.85,-0.54,7.98,8.5625,31.75,-7.375,117.812,-51.25,52.5,-0.533447,0.126282,-0.793823,0.263367
-303,-77,21.3125,-3.39,-0.3,7.38,8.5625,31.75,-7.375,120.125,-51.25,52.5,-0.535706,0.139893,-0.79718,0.240662
-306.688,-76.375,28.1875,-3.79,-0.15,7.16,8.5625,31.75,-7.375,120.125,-51.875,48.375,-0.535706,0.139893,-0.79718,0.240662
-307.5,-75.5,33.375,-4.21,-0.03,6.76,7.875,33.5625,0.6875,122.5,-52.5,44,-0.537659,0.153015,-0.80011,0.217468
-306.062,-73.8125,36.0625,-4.63,0.09,6.27,7.875,33.5625,0.6875,124.938,-53.1875,39.5625,-0.539185,0.165771,-0.802551,0.194092
-302.062,-71.0625,35.6875,-5.64,0.3,6.04,7.875,33.5625,0.6875,129.812,-54.5625,30.6875,-0.540527,0.19043,-0.805969,0.148376
-295.688,-66.6875,31.9375,-6.08,0.23,6.14,7.875,33.5625,0.6875,132.188,-54.5625,30.6875,-0.540344,0.202637,-0.806824,0.126526
-288.625,-63.5625,24.8125,-6.42,0.04,6.28,7.875,33.5625,0.6875,132.188,-55.125,26.3125,-0.540344,0.202637,-0.806824,0.126526
-282.75,-65.6875,15.75,-6.94,0.02,6.56,9.375,31.375,9.1875,134.438,-55.6875,22.0625,-0.539978,0.215149,-0.806885,0.105347
-279.875,-74.9375,6,-7.21,0.15,6.61,9.375,31.375,9.1875,136.438,-56.25,17.8125,-0.539917,0.228088,-0.805786,0.0846558
-280.438,-89.75,-4.125,-7.54,0.34,6.64,9.375,31.375,9.1875,139.75,-57.5625,9.0625,-0.541748,0.256104,-0.799438,0.0431519
-283.625,-108.5,-14.0625,-8.07,0.52,6.65,9.375,31.375,9.1875,140.938,-57.5625,9.0625,-0.543945,0.27124,-0.793762,0.0220337
-287.375,-129.25,-23.875,-9.44,0.86,5.98,9.375,31.375,9.1875,140.938,-58.375,4.625,-0.543945,0.27124,-0.793762,0.0220337
-289,-150.812,-34.75,-10,1.02,5.79,9.75,28.5,17.25,141.812,-59.3125,0.125,-0.54718,0.287048,-0.786255,0.000793457
-287.938,-166.125,-47.3125,-10.35,1.22,5.69,9.75,28.5,17.25,142.25,-60.25,355.75,-0.551025,0.303406,-0.777161,-0.0201416
-283.938,-169.875,-60.5,-10.63,1.39,5.42,9.75,28.5,17.25,142.25,-62.0625,347.812,-0.557983,0.337158,-0.75592,-0.0594482
-278.312,-165.75,-72.125,-10.89,1.59,5.04,9.75,28.5,17.25,142.25,-62.0625,347.812,-0.560669,0.354248,-0.744385,-0.0774536
-271.625,-160.312,-81.3125,-11.03,1.6,4.92,9.75,28.5,17.25,141.875,-62.8125,344.25,-0.560669,0.354248,-0.744385,-0.0774536
-264.438,-155.75,-88.125,-11.04,1.63,4.85,12.25,23.6875,22.1875,141.25,-63.4375,340.875,-0.562927,0.371155,-0.732361,-0.0945435
-255.312,-152.375,-93.6875,-11.2,1.72,4.76,12.25,23.6875,22.1875,140.375,-64,337.812,-0.564941,0.387756,-0.71991,-0.110657
-245.438,-151.625,-99.1875,-11.44,1.77,4.98,12.25,23.6875,22.1875,137.875,-65,332.25,-0.56897,0.419617,-0.693176,-0.140259
-236.75,-155.938,-103.062,-11.8,1.84,5.32,12.25,23.6875,22.1875,137.875,-65,332.25,-0.571533,0.434875,-0.678528,-0.15448
-231.188,-165.062,-106.375,-11.92,1.77,5.65,12.25,23.6875,22.1875,136.062,-65.4375,329.75,-0.571533,0.434875,-0.678528,-0.15448
-228.375,-176.25,-109.438,-12.27,1.4,5.51,12.6875,19.25,25,133.938,-65.9375,327.25,-0.574463,0.449707,-0.662781,-0.168701
-226.938,-184.688,-111.812,-12.41,1.14,5.12,12.6875,19.25,25,131.5,-66.3125,324.812,-0.577576,0.464233,-0.646118,-0.182922
-224,-191.812,-114.5,-12.52,0.93,5.1,12.6875,19.25,25,125.75,-66.9375,320.312,-0.584106,0.491821,-0.610352,-0.210754
-219.5,-195.938,-117.188,-12.6,0.92,5.28,12.6875,19.25,25,125.75,-66.9375,320.312,-0.587097,0.505005,-0.591736,-0.223877
-215.375,-194.188,-120.625,-12.87,1.22,5.49,12.6875,19.25,25,122.625,-67.0625,318.25,-0.587097,0.505005,-0.591736,-0.223877
-211.688,-190,-123.625,-12.83,1.22,5.59,14.5625,15.6875,27.375,119.5,-66.9375,316.312,-0.589722,0.517944,-0.572815,-0.236328
-209.25,-188.688,-124.188,-12.94,1.05,5.52,14.5625,15.6875,27.375,116.438,-66.75,314.438,-0.59198,0.530396,-0.553589,-0.248474
-207.375,-187.688,-121.938,-13.03,0.67,5.24,14.5625,15.6875,27.375,110.688,-66.0625,310.812,-0.595154,0.553772,-0.514893,-0.272095
-205.188,-184.312,-118.375,-13.3,-0.19,4.89,14.5625,15.6875,27.375,110.688,-66.0625,310.812,-0.595154,0.564697,-0.495728,-0.283325
-202.625,-177.938,-114.938,-13.61,-0.52,4.65,14.5625,15.6875,27.375,108.25,-65.5625,309.125,-0.595886,0.564697,-0.495728,-0.283325
-201.312,-171.938,-113.25,-13.91,-0.72,4.45,17.0625,12.25,26.1875,106,-65,307.438,-0.596008,0.575317,-0.476746,-0.294189
-201.125,-166.75,-114.312,-14.14,-0.75,4.73,17.0625,12.25,26.1875,104.062,-64.375,305.812,-0.595642,0.585693,-0.457642,-0.304565
-202.562,-159.875,-117.375,-14.34,-0.36,5.14,17.0625,12.25,26.1875,101.062,-62.75,304.25,-0.592834,0.606873,-0.41925,-0.323242
-206.188,-149.062,-121.375,-13.78,-0.34,5.12,17.0625,12.25,26.1875,101.062,-62.75,302.75,-0.592834,0.618042,-0.400391,-0.33136
-211.688,-133.75,-123,-13.23,-0.51,5.05,17.0625,12.25,26.1875,100.312,-61.8125,301.312,-0.589905,0.618042,-0.400391,-0.33136
-217.938,-115.438,-119.688,-13.74,-1.05,4.52,18.5625,9.25,25.75,100,-60.875,299.875,-0.585632,0.629517,-0.382141,-0.338684
-222.875,-100.812,-112.938,-14.16,-1.47,4.38,18.5625,9.25,25.75,100.125,-60,298.375,-0.580078,0.641113,-0.364685,-0.345581
-225.875,-93.5,-106.875,-14.67,-1.73,4.15,18.5625,9.25,25.75,100.938,-58.3125,296.875,-0.566772,0.663818,-0.330627,-0.358948
-228.625,-92.125,-103,-15.25,-1.93,3.65,18.5625,9.25,25.75,100.938,-58.3125,295.25,-0.566772,0.674744,-0.313171,-0.365784
-232.562,-94.8125,-102.875,-15.3,-2.33,2.36,18.5625,9.25,25.75,101.438,-57.5,293.625,-0.559326,0.674744,-0.313171,-0.365784
-238.438,-96.3125,-104.562,-15.04,-2.49,1.57,20.0625,7.1875,26.5625,102,-56.75,291.875,-0.551392,0.685608,-0.295227,-0.372498
-246.25,-91.3125,-103.938,-14.66,-2.68,0.98,20.0625,7.1875,26.5625,102.75,-55.9375,290.062,-0.54248,0.696594,-0.2771,-0.378967
-252.562,-78.25,-98.6875,-14.11,-2.62,0.46,20.0625,7.1875,26.5625,105.188,-54.5,288.25,-0.52124,0.718994,-0.243286,-0.390076
-254.938,-60.5,-87.125,-13.4,-2.66,-0.65,20.0625,7.1875,26.5625,105.188,-54.5,286.375,-0.52124,0.730103,-0.228821,-0.394409
-252.062,-39.625,-71.8125,-13.03,-2.94,-0.77,20.0625,7.1875,26.5625,106.875,-53.9375,284.438,-0.509033,0.730103,-0.228821,-0.394409
-245.688,-14.625,-53.4375,-12.99,-3.18,-0.5,22.6875,3.5625,25.75,108.812,-53.5,282.5,-0.495789,0.741028,-0.216614,-0.397644
-241.75,9.125,-32.8125,-13.17,-3.12,-0.22,22.6875,3.5625,25.75,111.125,-53.1875,280.5,-0.481506,0.751892,-0.206787,-0.400024
-244.125,27.375,-13.5,-13.78,-2.49,-0.33,22.6875,3.5625,25.75,116.688,-52.8125,278.375,-0.448792,0.773926,-0.191772,-0.403564
-252.375,39.375,1.125,-13.92,-2.17,-1.02,22.6875,3.5625,25.75,116.688,-52.8125,276.062,-0.448792,0.785156,-0.185242,-0.404907
-263.062,48.5,9.6875,-13.8,-1.65,-1.82,22.6875,3.5625,25.75,119.812,-52.625,273.438,-0.430359,0.785156,-0.185242,-0.404907
-273.562,61.125,14.375,-13.34,-0.67,-3.62,22.25,0.875,26.1875,123.188,-52.4375,270.688,-0.410706,0.796753,-0.179016,-0.405579
-281.938,80.125,17.625,-13.01,-0.47,-4.37,22.25,0.875,26.1875,126.875,-52.1875,267.812,-0.389771,0.808777,-0.173279,-0.404907
-287.125,102.875,21.25,-12.65,-0.23,-4.77,22.25,0.875,26.1875,134.938,-51.6875,264.812,-0.344971,0.833801,-0.164001,-0.398621
-289.25,126.938,25.4375,-12.18,0.02,-4.81,22.25,0.875,26.1875,134.938,-51.0625,261.688,-0.344971,0.846436,-0.160522,-0.393066
-289.562,146.062,29.4375,-10.94,0.45,-5.26,22.25,0.875,26.1875,139.188,-50.1875,258.5,-0.321411,0.846436,-0.160522,-0.393066
-283.25,160,37.1875,-10.19,0.68,-5.74,20.5,-6.75,26.875,143.375,-49.1875,255.188,-0.297668,0.858582,-0.158081,-0.386292
-283.25,160,37.1875,-9.98,0.91,-6.66,20.5,-6.75,26.875,147.5,-48.125,251.562,-0.273621,0.870117,-0.155518,-0.379272
-274.625,160.75,40,-9.94,1.23,-6.78,20.5,-6.75,26.875,155,-47,247.812,-0.226929,0.890503,-0.151306,-0.364136
-263.875,158.75,39.5625,-8.69,1.63,-6.68,20.5,-6.75,26.875,155,-45.8125,243.812,-0.226929,0.890503,-0.149292,-0.356262
-255,156.5,38.25,-8.46,1.85,-6.82,20.5,-6.75,26.875,158.438,-44.5625,239.688,-0.204529,0.899414,-0.149292,-0.356262
-242.562,154.875,34.3125,-8.38,2.08,-6.9,17.875,-12.25,27.25,161.562,-43.25,235.438,-0.183044,0.907593,-0.147217,-0.348022
-242.562,154.875,34.3125,-8.15,2.34,-6.92,17.875,-12.25,27.25,164.625,-41.9375,198,-0.161499,0.915161,-0.145081,-0.3396
-236.438,154.938,29.0625,-7.66,2.42,-6.72,17.875,-12.25,27.25,170,-40.5,197.562,-0.120728,0.928589,-0.139282,-0.322144
-224,148,16,-7.33,2.06,-7.1,17.875,-12.25,27.25,170,-39.125,197.062,-0.120728,0.934448,-0.135925,-0.313232
-224,148,16,-7.09,1.72,-7.28,17.875,-12.25,27.25,172.438,-37.75,196.5,-0.100952,0.934448,-0.135925,-0.313232
-197.5,138.75,3.3125,-6.37,1.5,-6.62,13.75,-18.5625,26.0625,174.5,-36.4375,196,-0.0836792,0.939575,-0.132141,-0.304504
-185.625,137.5,-2.875,-5.94,1.61,-6.23,13.75,-18.5625,26.0625,176.375,-35.125,195.438,-0.0674438,0.944275,-0.128052,-0.295593
-178.375,134.312,-7.625,-5.39,1.8,-5.94,13.75,-18.5625,26.0625,179.688,-33.8125,194.812,-0.0368042,0.952454,-0.119202,-0.278076
-175.438,129.562,-10.5,-4.8,2.08,-5.59,13.75,-18.5625,26.0625,179.688,-32.5625,194.25,-0.0368042,0.955872,-0.114502,-0.269653
-176.125,125.25,-11.9375,-3.91,2.48,-5.43,13.75,-18.5625,26.0625,-178.625,-31.3125,193.625,-0.0216064,0.955872,-0.114502,-0.269653
-177.188,122.562,-13.3125,-4.33,2.53,-5.79,11,-23.375,24.0625,-177,-30.125,193,-0.00646973,0.958984,-0.109558,-0.261414
-177.375,116.688,-17.125,-4.96,2.68,-6,11,-23.375,24.0625,-175.438,-29.0625,192.375,0.00860596,0.96167,-0.104309,-0.25354
-178.562,110.875,-21.5625,-4.37,3,-5.58,11,-23.375,24.0625,-172.312,-28,191.625,0.0386963,0.965881,-0.0925903,-0.23877
-180.438,108.688,-25.5625,-4.27,3.47,-5.79,11,-23.375,24.0625,-172.312,-27,190.938,0.0386963,0.967468,-0.0860596,-0.231812
-183.312,103.812,-29.9375,-3.9,3.64,-5.87,11,-23.375,24.0625,-170.75,-26,190.125,0.053833,0.967468,-0.0860596,-0.231812
-185.625,101.562,-33.375,-3.36,3.78,-6.02,9.875,-26,21.5625,-169.188,-25.125,189.312,0.0690918,0.968689,-0.0792236,-0.224976
-186.938,98.3125,-34.75,-2.64,3.63,-6.1,9.875,-26,21.5625,-167.625,-24.25,188.5,0.0844116,0.969543,-0.0722656,-0.218323
-187.125,93.5,-34.5,-2.2,4.01,-6.54,9.875,-26,21.5625,-166,-23.4375,187.688,0.114502,0.970093,-0.0582886,-0.205811
-183.562,91.5,-36.1875,-2.36,4.31,-6.67,9.875,-26,21.5625,-164.5,-22.6875,186.812,0.114502,0.970093,-0.0512085,-0.200256
-177.562,82.25,-38.4375,-2.26,4.61,-7,9.875,-26,21.5625,-163,-22,186,0.128784,0.96991,-0.0512085,-0.200256
-172.812,67.25,-37.0625,-1.11,5.12,-6.74,9.0625,-28.875,18.375,-161.562,-21.5,185.25,0.142578,0.969177,-0.0444946,-0.195923
-169.125,56.5,-32.3125,-0.8,5.34,-6.51,9.0625,-28.875,18.375,-160.125,-21.0625,184.5,0.156067,0.968079,-0.0383911,-0.192261
-167.688,50.1875,-27.1875,-1.65,5.85,-6.2,9.0625,-28.875,18.375,-158.625,-20.75,183.875,0.182983,0.964844,-0.0272217,-0.186646
-169.062,40.0625,-27.625,-3.28,6.78,-5.91,9.0625,-28.875,18.375,-157.125,-20.4375,183.188,0.182983,0.964844,-0.0213623,-0.184509
-166.312,36.75,-32.8125,-2.77,7.33,-7.53,9.0625,-28.875,18.375,-155.688,-20.25,182.5,0.196045,0.96283,-0.0213623,-0.184509
-157.5,31,-33.4375,-2.59,7.78,-6.77,8,-30.6875,13.75,-154.312,-20.125,181.562,0.208801,0.960693,-0.0133667,-0.182312
-149.438,22.5,-31.5625,-2.29,8.03,-6.28,8,-30.6875,13.75,-153,-20.0625,180.938,0.220459,0.958374,-0.00805664,-0.181152
-139.062,18.8125,-28.0625,-1.66,7.81,-7.03,8,-30.6875,13.75,-151.812,-20.0625,180.375,0.231323,0.953918,0.00109863,-0.178894
-123.188,23.1875,-25.625,-2.01,7.87,-7.24,8,-30.6875,13.75,-150.75,-19.9375,179.812,0.240845,0.953918,0.00109863,-0.176514
-104.312,36.6875,-30,-2.52,7.75,-7.28,8,-30.6875,13.75,-149.875,-19.8125,179.25,0.248779,0.952332,0.00579834,-0.176514
-85.8125,50.625,-41.0625,-2.57,7.41,-7.31,8.375,-31.375,9.6875,-149.25,-19.5625,178.125,0.255737,0.951172,0.0151367,-0.172302
-71.375,67.5625,-57.9375,-2.85,7.33,-6.54,8.375,-31.375,9.6875,-148.875,-19.3125,177.312,0.260498,0.9505,-6.10352e-05,-0.16803
-62.0625,93.625,-79,-2.63,6.53,-6.42,8.375,-31.375,9.6875,-148.625,-18.9375,176.188,0.26416,0.950378,0.0431519,-0.15387
-55.625,127.938,-99.5,-2.54,5.97,-5.54,8.375,-31.375,9.6875,-148.562,-18.375,174.75,0.266907,0.950378,0.0431519,-0.143494
-56.3125,159.062,-114.812,-2.25,6.04,-6.15,8.375,-31.375,9.6875,-148.625,-17.625,173.125,0.269348,0.950623,0.0567017,-0.143494
-60.8125,170.375,-121.062,-1.57,5.96,-6.3,8.6875,-32.5625,7.25,-148.625,-16.8125,171.438,0.271912,0.950562,0.0709839,-0.132263
-69.8125,169.125,-120.375,-1.05,6.14,-6.59,8.6875,-32.5625,7.25,-148.5,-16.0625,169.688,0.275085,0.949951,0.0853271,-0.120972
-79.125,168.625,-112.5,-0.33,6.34,-6.77,8.6875,-32.5625,7.25,-148.188,-15.25,168.062,0.279053,0.947388,0.111816,-0.0970459
-88.4375,174.5,-97.6875,0.39,6.58,-6.66,8.6875,-32.5625,7.25,-147.812,-14.3125,166.5,0.283691,0.947388,0.111816,-0.0970459
-98.8125,187.938,-77.6875,1.15,6.78,-6.09,8.6875,-32.5625,7.25,-147.25,-13.125,165.125,0.289124,0.945679,0.123291,-0.0828857
-111,204.188,-55,1.14,6.94,-5.91,10.1875,-31.0625,6.875,-146.5,-11.8125,163.875,0.295471,0.943665,0.133423,-0.0667725
-125.812,215.375,-32,1.27,7.41,-5.92,10.1875,-31.0625,6.875,-145.562,-10.25,162.812,0.302795,0.941162,0.142029,-0.0489502
-141.25,219.5,-9.125,1.53,7.81,-6.1,10.1875,-31.0625,6.875,-144.438,-8.5625,161.938,0.311279,0.93811,0.154114,-0.010437
-154.125,219.25,11.5,1.23,7.95,-6.82,10.1875,-31.0625,6.875,-143.062,-6.75,161.25,0.320679,0.934509,0.154114,-0.010437
-161.312,216.25,26.4375,0.86,7.83,-7.24,10.1875,-31.0625,6.875,-141.625,-4.9375,160.688,0.330505,0.93042,0.15802,0.00946045
-161.875,216.375,34.5625,0.57,7.69,-7.43,11.6875,-29.5625,5.25,-140.125,-3.125,160.25,0.340271,0.925964,0.161133,0.0296021
-157.625,227.062,37.125,0.41,7.58,-7.49,11.6875,-29.5625,5.25,-138.625,-1.1875,159.75,0.349304,0.921082,0.164368,0.0505371
-151.688,248.875,37,0.76,7.53,-6.94,11.6875,-29.5625,5.25,-137.188,0.75,159.188,0.357361,0.915771,0.172363,0.0975342
-150.938,273.438,38.875,1.24,7.76,-6.65,11.6875,-29.5625,5.25,-135.688,2.9375,158.5,0.364807,0.90979,0.172363,0.123291
-160.562,287.688,45.0625,2.19,7.93,-6.37,11.6875,-29.5625,5.25,-134,5.1875,323.312,0.372437,0.902771,0.176392,0.123291
-179.438,291.938,55.125,3,8.28,-6.11,10.5625,-30.75,4.5,-132.062,7.5,317,0.381042,0.894531,0.179382,0.149902
-204.188,286.5,65.125,3.39,9.22,-6.58,10.5625,-30.75,4.5,-129.812,9.8125,311.375,0.391113,0.884888,0.18103,0.176636
-228.312,274.5,73.125,3.52,9.47,-6.83,10.5625,-30.75,4.5,-127.312,12,306.438,0.40271,0.873962,0.181152,0.229248
-247.875,269.188,78.6875,3.6,9.88,-6.63,10.5625,-30.75,4.5,-124.5,14.1875,302.188,0.415344,0.861694,0.180115,0.229248
-268.625,271.312,82,4.49,10.87,-5.69,10.5625,-30.75,4.5,-121.438,16.25,298.375,0.428955,0.847778,0.178406,0.255798
-293.562,275.438,84.9375,5.13,11.48,-5.16,8,-31.1875,1.1875,-118,18.3125,294.938,0.443726,0.83197,0.175842,0.282837
-321.812,279.812,88,5.67,12.22,-4.41,8,-31.1875,1.1875,-114.188,20.25,291.938,0.459778,0.814026,0.172363,0.310364
-353.938,283.812,91.375,6.2,12.97,-3.88,8,-31.1875,1.1875,-109.875,22.125,289.312,0.477173,0.793518,0.167664,0.366272
-386.75,282.75,94.75,6.4,13.89,-3.93,8,-31.1875,1.1875,-105.188,23.8125,287.062,0.495972,0.770569,0.161499,0.366272
-415.812,270.375,95.4375,5.18,14.45,-4.07,8,-31.1875,1.1875,-100.062,25.3125,285.375,0.51593,0.745361,0.153625,0.393188
-437.688,246.312,89.3125,5.13,14.11,-4.58,6.5,-33.375,-4.5,-94.75,26.4375,284.188,0.536804,0.718628,0.144043,0.417908
-449.688,224.562,79.625,5.04,13.55,-4.66,6.5,-33.375,-4.5,-89.3125,27.3125,283.438,0.558044,0.690613,0.133423,0.440186
-452.375,206.375,67.9375,5.69,13.27,-4.18,6.5,-33.375,-4.5,-83.875,27.8125,283,0.579102,0.661804,0.122253,0.478149
-445.062,197.688,57.3125,5.6,13.18,-3.25,6.5,-33.375,-4.5,-78.5,28.0625,282.812,0.599182,0.632385,0.111328,0.494751
-438.938,192.812,50.5625,6.16,13.42,-2.36,6.5,-33.375,-4.5,-73.25,28.125,282.625,0.618286,0.602356,0.100586,0.494751
-439,185.5,50.5,6.45,13.71,-1.03,5.75,-29.25,-14.5625,-68,28,282.562,0.636414,0.571655,0.0892944,0.510132
-447.562,168.5,55.0625,6.56,13.11,0.76,5.75,-29.25,-14.5625,-62.75,27.8125,282.5,0.653809,0.540283,0.0762939,0.52417
-459,146.688,62.625,6.35,12.38,0.55,5.75,-29.25,-14.5625,-57.5,27.625,282.625,0.670471,0.508423,0.0611572,0.54834
-462,129.188,70.6875,5.66,11.53,0.31,5.75,-29.25,-14.5625,-52.3125,27.4375,282.688,0.685852,0.476379,0.0444946,0.54834
-453.438,114.75,76.25,4.57,9.89,0.65,5.75,-29.25,-14.5625,-47.25,27.3125,282.75,0.699585,0.444702,0.0270386,0.558594
-438.125,100.188,78.6875,4.19,9.29,1.42,7.5625,-23,-24.25,-42.375,27.125,282.812,0.711609,0.414001,0.00933838,0.567627
-422.812,88.25,77.875,3.97,8.9,2.27,7.5625,-23,-24.25,-37.6875,27,282.875,0.722046,0.384155,-0.00836182,0.575317
-409,82.5625,73.375,3.72,8.53,2.93,7.5625,-23,-24.25,-33.1875,26.75,282.938,0.731384,0.354919,-0.0255737,0.581787
-395.375,81.4375,66,3.62,7.47,3.76,7.5625,-23,-24.25,-28.875,26.375,283.062,0.739685,0.326111,-0.0419312,0.587158
-380.438,81.5625,56.3125,3.72,6.99,4.06,7.5625,-23,-24.25,-24.8125,25.9375,283.25,0.747253,0.297913,-0.0571899,0.591248
-364.438,80.1875,45.875,3.62,6.44,4.29,8.375,-13,-28.75,-20.9375,25.375,283.5,0.75415,0.270569,-0.0714722,0.594055
-348.75,76.0625,35.0625,3.42,5.77,4.24,8.375,-13,-28.75,-17.3125,24.8125,283.812,0.760498,0.244202,-0.0848999,0.595703
-331.938,68.4375,23,2.35,4.3,3.57,8.375,-13,-28.75,-13.9375,24.25,284.25,0.766357,0.219177,-0.0975952,0.595947
-312.062,54.5,10.0625,1.91,3.48,3.34,8.375,-13,-28.75,-10.8125,23.75,284.75,0.77179,0.196106,-0.109924,0.594788
-288.875,34.8125,-2.6875,1.88,2.74,3.5,8.375,-13,-28.75,-8,23.375,285.312,0.776794,0.175476,-0.122131,0.592346
-265.938,14.0625,-13.75,1.84,2.05,3.73,10.5625,-3.375,-31.6875,-5.4375,23.25,286,0.781372,0.15741,-0.134216,0.588745
-244.25,-3.5,-23.6875,1.52,0.72,4.73,10.5625,-3.375,-31.6875,-3.1875,23.25,286.688,0.785583,0.141724,-0.146301,0.584229
-225.688,-20.375,-32.3125,1.57,0.19,5.27,10.5625,-3.375,-31.6875,-1.125,23.4375,287.438,0.78949,0.128113,-0.158386,0.578979
-212.938,-36,-37,3.16,-0.46,8.12,10.5625,-3.375,-31.6875,0.6875,23.8125,288.25,0.792969,0.11615,-0.170715,0.573181
-212.438,-42.25,-32.8125,3.62,-1.13,8.5,10.5625,-3.375,-31.6875,2.625,24.1875,289,0.795898,0.104431,-0.183533,0.567383
-213.5,-32.5625,-25.9375,4.1,-1.32,9.25,11.25,4.6875,-31.25,4.5625,24.5625,289.688,0.798401,0.092041,-0.195679,0.561951
-216.25,-36.5,-18.5,4.56,-1.53,9.55,11.25,4.6875,-31.25,6.625,24.9375,290.312,0.800232,0.0794678,-0.208191,0.556763
-217.75,-23.3125,-12.125,4.14,-1.43,9.77,11.25,4.6875,-31.25,8.6875,25.125,290.875,0.801697,0.06604,-0.21991,0.551819
-221.688,-3.5625,-11.3125,3.03,-1.23,8.52,11.25,4.6875,-31.25,10.75,25.1875,291.5,0.803284,0.0513916,-0.230408,0.546814
-223.5,-1.625,-14.3125,2.78,-1.22,7.73,11.25,4.6875,-31.25,12.875,25.25,292.125,0.804749,0.0365601,-0.240723,0.541382
-221.25,-1.8125,-18.1875,2.74,-1.22,7.28,10.1875,10.25,-30.5,14.9375,25.3125,292.75,0.806091,0.0219727,-0.250854,0.535583
-215.812,-0.375,-23.4375,2.78,-1.47,6.78,10.1875,10.25,-30.5,16.9375,25.375,293.5,0.807373,0.0078125,-0.260559,0.529297
-206.625,-1.625,-28.375,2.14,-1.96,6.19,10.1875,10.25,-30.5,18.8125,25.5,294.188,0.808655,-0.00561523,-0.269836,0.522766
