Gyro_x,Gyro_y,Gyro_z,Acc_x,Acc_y,Acc_z,Mag_x,Mag_y,Mag_z,Euler_x,Euler_y,Euler_z,Quat_0,Quat_1,Quat_2,Quat_3
1.625,-19.125,28.8125,-6.21,0.28,9.25,15.0625,-20.0625,-17.875,-0.5,-37.875,180.375,-0.003479,0.324585,-0.00500488,-0.945862
1.125,-23.375,31.875,-6.19,0.22,9.15,15.0625,-20.0625,-17.875,-0.75,-37.625,180.062,-0.000976562,0.322693,-0.00592041,-0.946472
1.75,-28.25,35.5,-6.01,0.13,9.05,15.0625,-20.0625,-17.875,-1,-37.375,179.75,0.00177002,0.320435,-0.00708008,-0.947266
4.25,-30.875,39.625,-5.77,0.09,9.03,15.0625,-20.0625,-17.875,-1.3125,-37.0625,179.375,0.00482178,0.317932,-0.00848389,-0.948059
8.0625,-32.875,43.1875,-6.14,0.33,9.14,15.0625,-20.0625,-17.875,-1.75,-36.6875,179,0.00805664,0.315247,-0.0103149,-0.948914
11.4375,-37.0625,44.5625,-6.27,0.47,9.33,14.375,-20.0625,-18.6875,-2.125,-36.3125,178.625,0.0113525,0.312073,-0.0123901,-0.94989
13.6875,-42.0625,43.625,-6.27,0.55,9.51,14.375,-20.0625,-18.6875,-2.5625,-35.875,178.25,0.0144653,0.308655,-0.0147095,-0.950928
15.3125,-44.8125,41,-5.85,0.6,9.72,14.375,-20.0625,-18.6875,-3,-35.4375,177.875,0.017334,0.305054,-0.0170288,-0.952026
17.0625,-45.25,38.1875,-5.44,0.58,9.65,14.375,-20.0625,-18.6875,-3.8125,-34.5,177.312,0.0222778,0.297791,-0.0220947,-0.954102
20.125,-44,37.1875,-5.07,0.55,9.56,14.375,-20.0625,-18.6875,-3.8125,-34.5,177.312,0.0222778,0.297791,-0.0220947,-0.954102
24.1875,-40.75,38.4375,-4.87,0.51,9.63,12.875,-20.75,-19.0625,-4.3125,-34.125,176.938,0.0250854,0.294495,-0.0249634,-0.955017
28.875,-35.25,41.375,-4.58,0.47,9.38,12.875,-20.75,-19.0625,-4.8125,-33.75,176.625,0.0276489,0.291626,-0.0284424,-0.955688
34.375,-31.1875,46.6875,-4.62,0.46,9.14,12.875,-20.75,-19.0625,-5.4375,-33.375,176.312,0.0304565,0.289062,-0.0324097,-0.956299
40.625,-30.25,53.375,-4.79,0.51,8.87,12.875,-20.75,-19.0625,-6.125,-33.0625,175.938,0.0337524,0.28656,-0.0371094,-0.956726
46.3125,-33.125,59.875,-4.95,0.54,8.74,12.875,-20.75,-19.0625,-6.9375,-32.6875,175.5,0.0373535,0.283813,-0.0423584,-0.957214
50.6875,-34.625,63.6875,-5.33,0.95,8.76,12.1875,-21.5,-19.0625,-7.8125,-32.25,175.062,0.0411377,0.280945,-0.0480957,-0.957642
52.4375,-35.8125,64.875,-5.1,1.19,8.8,12.1875,-21.5,-19.0625,-8.6875,-31.8125,174.562,0.0449829,0.277954,-0.0540161,-0.958008
50.75,-33.1875,64.4375,-4.86,1.49,8.88,12.1875,-21.5,-19.0625,-9.5,-31.375,174.125,0.0488892,0.275146,-0.0597534,-0.958313
47.3125,-31.875,64.3125,-4.65,1.72,8.32,12.1875,-21.5,-19.0625,-10.3125,-31,173.688,0.0527954,0.2724,-0.0652466,-0.958496
48.4375,-41.0625,64.0625,-4.89,1.81,7.5,12.1875,-21.5,-19.0625,-11.125,-30.5,173.188,0.0566406,0.268982,-0.0708008,-0.958862
51.25,-45.6875,60.3125,-5.23,1.73,7.11,10.375,-23,-18.5625,-11.875,-29.9375,172.812,0.0601196,0.265137,-0.0765381,-0.95929
53.75,-43.4375,52.1875,-5.53,1.68,6.69,10.375,-23,-18.5625,-12.625,-29.4375,172.5,0.0628662,0.261536,-0.0822754,-0.959595
53.4375,-41.125,40.5,-5.73,1.27,7.54,10.375,-23,-18.5625,-13.3125,-28.9375,172.25,0.0646973,0.258179,-0.0877686,-0.9599
45.6875,-41.25,26.6875,-5.65,0.88,8.24,10.375,-23,-18.5625,-13.8125,-28.5,172.188,0.0655518,0.254883,-0.0922241,-0.960327
28.3125,-44.75,13,-5.66,0.64,8.22,10.375,-23,-18.5625,-14.125,-28.0625,172.125,0.0656738,0.251343,-0.0950928,-0.960999
7.75,-50.875,0.4375,-5.61,0.74,7.64,9.25,-25.1875,-16.5,-14.125,-27.5625,172.375,0.0637207,0.24707,-0.0963135,-0.962097
-7.375,-54.875,-11.625,-5.1,0.95,6.8,9.25,-25.1875,-16.5,-13.9375,-27.0625,172.562,0.062439,0.242676,-0.0957642,-0.963318
-18.25,-56.375,-24.0625,-4.78,0.94,6.77,9.25,-25.1875,-16.5,-13.5625,-26.625,172.812,0.0604248,0.238159,-0.0941162,-0.964783
-28.625,-55.0625,-34.5625,-4.32,0.77,6.82,9.25,-25.1875,-16.5,-13.0625,-26.125,173.125,0.0577393,0.233826,-0.0913696,-0.966248
-40.375,-52,-40.25,-3.69,0.52,6.85,9.25,-25.1875,-16.5,-12.4375,-25.75,173.5,0.0548706,0.229675,-0.0875244,-0.967773
-53.1875,-51.75,-40,-2.92,0.2,6.56,8.1875,-24.375,-18.1875,-11.6875,-25.3125,173.812,0.0521851,0.225464,-0.0826416,-0.969299
-64.25,-60.625,-37.3125,-6.04,-0.71,5.52,8.1875,-24.375,-18.1875,-10.875,-24.8125,174.062,0.0499268,0.22052,-0.0769043,-0.971069
-62.25,-99.4375,-45,-5.44,-0.45,3.62,8.1875,-24.375,-18.1875,-10,-24,174.438,0.0467529,0.212341,-0.0714111,-0.97345
-44.75,-123.812,-60.3125,-6.53,-0.32,2.96,8.1875,-24.375,-18.1875,-9.1875,-22.875,175.062,0.0418701,0.202332,-0.0670776,-0.976135
-21.5,-141.312,-82.25,-6.37,0.54,6.09,8.1875,-24.375,-18.1875,-8.625,-21.6875,175.938,0.034668,0.19104,-0.0643921,-0.978821
-7.5625,-159.312,-102,-4.26,0.78,6.86,7.75,-24,-19.75,-8.0625,-20.25,177,0.0254517,0.178406,-0.0626221,-0.981628
-5.5,-194.75,-110.625,-2.55,0.86,6.15,7.75,-24,-19.75,-7.5625,-18.5625,178.188,0.0153198,0.162781,-0.0609131,-0.98468
-4.625,-216,-106.188,0.11,-0.03,8.93,7.75,-24,-19.75,-7.0625,-16.625,179.312,0.00549316,0.145325,-0.0593262,-0.98761
-10.3125,-197.875,-87.6875,0.75,-0.22,10.4,7.75,-24,-19.75,-6.6875,-14.8125,180.312,-0.00274658,0.129211,-0.0574341,-0.989929
-26.3125,-159.062,-62.125,0.95,-0.01,10.26,7.75,-24,-19.75,-6.25,-13.375,180.938,-0.00842285,0.116211,-0.0545044,-0.991699
-41.375,-113.375,-37.0625,0.79,0.17,9.47,7.375,-22.5,-19.75,-5.75,-12.3125,181.312,-0.0117798,0.106934,-0.0505981,-0.99292
-50.9375,-76,-18.5,-0.44,0.68,7.91,7.375,-22.5,-19.75,-5.1875,-11.5625,181.5,-0.0132446,0.100647,-0.0460815,-0.993774
-54.4375,-53.6875,-8.625,-1.28,0.61,7.54,7.375,-22.5,-19.75,-4.625,-11.0625,181.562,-0.0136719,0.0962524,-0.0413818,-0.994385
-52.5625,-41.6875,-6.25,-2.05,0.35,7.51,7.375,-22.5,-19.75,-4.125,-10.6875,181.562,-0.0139771,0.0928345,-0.0368652,-0.994873
-46.6875,-37.9375,-9.625,-2.71,0.02,7.27,7.375,-22.5,-19.75,-3.625,-10.3125,181.625,-0.0145264,0.0897217,-0.0328369,-0.9953
-36.5625,-42.875,-18,-4.02,-0.44,6.6,5.5625,-22.1875,-21.75,-3.25,-9.9375,181.812,-0.0158691,0.0861816,-0.029541,-0.995728
-23.375,-56.625,-31.875,-4.54,-0.39,7.13,5.5625,-22.1875,-21.75,-2.9375,-9.375,182.125,-0.0185547,0.081543,-0.0272827,-0.996094
-12.1875,-73.3125,-51.3125,-4.87,-0.2,8.04,5.5625,-22.1875,-21.75,-2.75,-8.6875,182.625,-0.0229492,0.0755005,-0.0258179,-0.996521
-8.9375,-86.4375,-74.625,-4.91,0.01,9.53,5.5625,-22.1875,-21.75,-2.5625,-7.875,183.312,-0.0293579,0.0684204,-0.0244141,-0.996948
-16.9375,-90.625,-97.625,-3.37,0.46,12.15,5.5625,-22.1875,-21.75,-2.25,-7.0625,184.312,-0.0376587,0.0610352,-0.0221558,-0.997192
-34.75,-81.125,-115.25,-1.95,0.54,12.67,4.875,-20.6875,-22.5625,-1.8125,-6.3125,185.438,-0.0473633,0.0545044,-0.0183716,-0.997192
-54.3125,-65.75,-122.188,-0.56,0.45,11.66,4.875,-20.6875,-22.5625,-1.125,-5.6875,186.562,-0.0574951,0.0493774,-0.0130005,-0.997009
-63.5,-55.875,-116.875,2.22,-0.29,10.3,4.875,-20.6875,-22.5625,-0.4375,-5.1875,187.688,-0.0671387,0.045105,-0.00689697,-0.996704
-58.75,-47.625,-99.75,3.38,-0.9,9.75,4.875,-20.6875,-22.5625,0.1875,-4.75,188.625,-0.0753174,0.0414429,-0.00128174,-0.996277
-42.5625,-39.8125,-70.125,3.39,-1.04,8.85,4.875,-20.6875,-22.5625,0.625,-4.3125,189.25,-0.0811157,0.0383911,0.00280762,-0.995972
-18.75,-35.0625,-39,2.67,-0.73,8.09,5.1875,-20.25,-23.375,0.875,-4,189.688,-0.0847778,0.0355835,0.00476074,-0.995728
5.125,-31.1875,-18.1875,0.79,0,8.54,5.1875,-20.25,-23.375,0.8125,-3.6875,189.875,-0.0863037,0.0328979,0.00457764,-0.995728
22.625,-20.875,-11.875,-0.44,0.17,8.57,5.1875,-20.25,-23.375,0.625,-3.5,190,-0.0873413,0.0309448,0.00286865,-0.995667
31.5625,-3.0625,-20.1875,-1.16,0.41,7.98,5.1875,-20.25,-23.375,0.3125,-3.4375,190.188,-0.0891113,0.0304565,0.000305176,-0.995544
33.625,16.5,-38.4375,-1.79,0.59,8.1,5.1875,-20.25,-23.375,0,-3.625,190.562,-0.0924683,0.0316162,-0.00256348,-0.995239
29.4375,34.625,-61.5625,-2.39,-0.08,9.62,6.25,-19.1875,-24.5625,-0.1875,-3.9375,191.312,-0.098938,0.0343018,-0.00518799,-0.994507
21.5625,42.125,-80.6875,-1.08,-0.43,9.35,6.25,-19.1875,-24.5625,-0.3125,-4.375,192.125,-0.105774,0.0376587,-0.00714111,-0.993652
18.375,19.875,-76.625,1.8,0.25,9.93,6.25,-19.1875,-24.5625,-0.4375,-4.5625,192.875,-0.112244,0.0392456,-0.00860596,-0.992859
16.25,-2.6875,-40.6875,3.36,1.17,10.97,6.25,-19.1875,-24.5625,-0.5625,-4.5,193.25,-0.115723,0.0388794,-0.00982666,-0.992493
9.1875,2.25,0,0.86,1.91,11.77,6.25,-19.1875,-24.5625,-0.6875,-4.5625,193.25,-0.115723,0.0390015,-0.0106201,-0.992432
-0.1875,30.1875,23.75,-0.59,1.77,12.92,6.25,-19.1875,-23.75,-0.6875,-4.8125,193.125,-0.114319,0.0415039,-0.0109863,-0.992493
-11.5,65.75,28.6875,-1.59,1.47,11.44,6.25,-19.1875,-23.75,-0.625,-5.5,192.812,-0.111816,0.0471191,-0.0108032,-0.992554
-15.25,79.5625,21.9375,-1.87,0.88,8.77,6.25,-19.1875,-23.75,-0.5,-6.25,192.625,-0.109863,0.053894,-0.0103149,-0.992432
-10.5,73.25,11.75,-5.01,0.02,14.59,6.25,-19.1875,-23.75,-0.375,-6.9375,192.5,-0.108765,0.0601196,-0.0101929,-0.992188
-17.25,41.375,-7.3125,-5.17,-0.54,13.37,6.25,-19.1875,-23.75,-0.1875,-7.375,192.562,-0.109253,0.0637207,-0.00909424,-0.991943
-25.875,-17.8125,-30.9375,-3.73,-0.11,14.18,8.1875,-19.1875,-24.5625,0,-7.1875,193.062,-0.113892,0.0625,-0.00671387,-0.991516
-35.875,-54.1875,-47.1875,-1.77,1.25,16.33,8.1875,-19.1875,-24.5625,0.4375,-6.625,193.5,-0.117676,0.0583496,-0.00292969,-0.991333
-45.75,-57.8125,-56.5,-0.75,1.4,16.12,8.1875,-19.1875,-24.5625,0.9375,-6.0625,194,-0.122192,0.0539551,0.00177002,-0.991028
-49.5,-42.0625,-59.3125,0.62,1.23,15.99,8.1875,-19.1875,-24.5625,1.4375,-5.6875,194.562,-0.126953,0.0509644,0.0065918,-0.990601
-47.375,-16.1875,-53.75,1.49,1.01,15.49,8.1875,-19.1875,-24.5625,2,-5.5,195.062,-0.131226,0.0500488,0.0109863,-0.990051
-40.9375,6.5,-42.5,1.65,0.45,14.98,8.25,-18.5,-25,2.4375,-5.5625,195.5,-0.135193,0.0510254,0.0144653,-0.98938
-30.8125,17.5625,-29.1875,1.57,0.38,15.63,8.25,-18.5,-25,2.75,-5.6875,195.812,-0.137512,0.0527954,0.0169678,-0.988953
-19.875,24.1875,-15.75,1.44,0.77,16.75,8.25,-18.5,-25,2.9375,-5.9375,195.938,-0.138733,0.0550537,0.0184326,-0.988647
-10.0625,35.5,-5.5,0.92,1.52,17.62,8.25,-18.5,-25,3.0625,-6.25,196,-0.139221,0.0581055,0.0188599,-0.988403
-1.875,47.75,0.875,-0.22,1.7,18.84,8.25,-18.5,-25,3.0625,-6.75,196,-0.139221,0.0621338,0.0184937,-0.988159
7.6875,54.75,5.4375,-1.02,1.69,18.57,9,-17,-24.5,3,-7.25,196.188,-0.14093,0.0666504,0.0170288,-0.98761
23.375,46.0625,8.5625,-1.58,1.78,17.8,9,-17,-24.5,2.75,-7.6875,196.188,-0.140442,0.0702515,0.0144653,-0.987488
44.25,27.25,9.9375,-2.15,1.81,17.35,9,-17,-24.5,2.3125,-8,196.125,-0.139893,0.0720215,0.010376,-0.987488
70.875,9.75,8.9375,-2.29,1.7,16.46,9,-17,-24.5,1.625,-8.0625,196.062,-0.139587,0.0719604,0.0043335,-0.98761
105.312,6.3125,8.125,-2.4,1.94,15.62,9,-17,-24.5,0.625,-8.125,196.062,-0.139526,0.0712891,-0.00457764,-0.98761
145.25,12.9375,7.3125,-2.63,2.18,15.06,9.75,-17.6875,-24.5,-0.75,-8.25,196.125,-0.140381,0.0706177,-0.0169678,-0.987427
183.75,19.5,3.75,-2.83,2.75,14.77,9.75,-17.6875,-24.5,-2.5625,-8.4375,196.25,-0.141113,0.0700684,-0.0325317,-0.987
214.562,20.75,-4.1875,-2.67,2.73,14.35,9.75,-17.6875,-24.5,-4.625,-8.625,196.438,-0.142639,0.0692749,-0.0506592,-0.986023
236.25,10.4375,-14.1875,-2.29,2.45,13.6,9.75,-17.6875,-24.5,-6.875,-8.75,196.75,-0.145142,0.0673218,-0.0703735,-0.984619
250.438,-12.5,-23.125,-1.93,2.22,12.77,9.75,-17.6875,-24.5,-9.25,-8.6875,197.188,-0.14856,0.0633545,-0.0908813,-0.982666
259.438,-38.5,-30.6875,-1.04,2.3,10.26,10.5,-20,-22.875,-11.75,-8.375,197.688,-0.15271,0.0570679,-0.111755,-0.980286
264.938,-63.5,-35.9375,-0.6,2.5,8.81,10.5,-20,-22.875,-14.25,-7.875,198.312,-0.157532,0.0487671,-0.132629,-0.977356
269.812,-89,-37.75,-0.51,2.68,7.48,10.5,-20,-22.875,-16.75,-7.125,198.938,-0.16272,0.038208,-0.153564,-0.973877
273.188,-114.188,-38.125,-0.86,2.72,6.54,10.5,-20,-22.875,-19.3125,-6.1875,199.625,-0.168152,0.0255737,-0.174255,-0.96991
271.625,-136.688,-41.625,-1.54,2.44,5.47,10.5,-20,-22.875,-21.875,-5.0625,200.438,-0.174133,0.0111084,-0.194397,-0.965271
266.5,-152,-49.125,-1.25,2.13,5.33,10.0625,-24,-16.25,-24.375,-3.9375,201.312,-0.180786,-0.00439453,-0.213806,-0.959961
260.938,-156.438,-56.3125,-0.82,1.96,5.21,10.0625,-24,-16.25,-26.8125,-2.8125,202.25,-0.188049,-0.0200806,-0.232483,-0.954041
258,-146,-59.6875,-0.62,1.73,4.81,10.0625,-24,-16.25,-29.25,-1.8125,203.25,-0.195251,-0.034729,-0.250977,-0.947449
256.125,-130.125,-58.6875,-0.61,1.4,4.12,10.0625,-24,-16.25,-31.75,-1,204.188,-0.201843,-0.0480957,-0.269409,-0.940369
251.062,-115.75,-55.1875,-0.94,1.41,3.69,10.0625,-24,-16.25,-34.125,-0.375,205.062,-0.207825,-0.0603027,-0.287537,-0.932983
242.438,-101.188,-54.9375,-0.71,1.46,3.01,9.75,-27.375,-11.875,-36.5,0.0625,205.938,-0.213318,-0.071228,-0.305115,-0.925415
233.812,-83.4375,-57.4375,-0.12,1.44,1.79,9.75,-27.375,-11.875,-38.75,0.375,206.75,-0.218506,-0.0804443,-0.322144,-0.917603
226.438,-66.125,-59.625,-0.05,1.3,1.1,9.75,-27.375,-11.875,-40.9375,0.5,207.562,-0.223328,-0.0881348,-0.338806,-0.909729
219.562,-55.0625,-61.75,-0.05,1.22,0.6,9.75,-27.375,-11.875,-43.0625,0.5,208.375,-0.227966,-0.0946655,-0.355042,-0.901672
214.625,-48.875,-64.375,0.18,1.25,0.06,9.75,-27.375,-11.875,-45.1875,0.375,209.125,-0.232605,-0.100586,-0.37085,-0.893433
212.875,-47,-65.8125,0.26,1.3,-0.18,10.375,-29.6875,-6.5625,-47.25,0.25,210,-0.237183,-0.106262,-0.386475,-0.884888
212.562,-47.125,-66.375,0.29,1.27,-0.19,10.375,-29.6875,-6.5625,-49.3125,0.0625,210.812,-0.24176,-0.111877,-0.401978,-0.876038
212.25,-47.375,-67.0625,0.27,1.3,-0.22,10.375,-29.6875,-6.5625,-51.3125,-0.0625,211.688,-0.246277,-0.117371,-0.417236,-0.866882
211.75,-47.5,-67.5,0.28,1.31,-0.23,10.375,-29.6875,-6.5625,-53.375,-0.3125,212.562,-0.250732,-0.122864,-0.432373,-0.857361
211.375,-47.6875,-68.3125,0.27,1.3,-0.2,10.375,-29.6875,-6.5625,-55.4375,-0.5625,213.5,-0.255188,-0.128296,-0.447266,-0.847534
211.125,-47.9375,-69,0.26,1.31,-0.19,11.1875,-28.75,-1.375,-57.4375,-0.875,214.438,-0.259583,-0.133667,-0.462036,-0.837402
210,-49.625,-69.6875,-0.26,1.49,1.2,11.1875,-28.75,-1.375,-59.5,-1.1875,215.375,-0.264038,-0.139038,-0.476501,-0.826965
196.438,-82.625,-71.0625,-1.17,2.04,4.67,11.1875,-28.75,-1.375,-61.375,-1.4375,216.562,-0.27002,-0.146301,-0.489136,-0.816345
156.938,-180.688,-70.875,-0.74,2.4,6.01,11.1875,-28.75,-1.375,-62.8125,-1.1875,218.312,-0.280334,-0.159363,-0.496582,-0.805847
110,-283.25,-69.6875,-1.95,3.06,8.33,11.1875,-28.75,-1.375,-63.875,-0.5625,220.688,-0.29541,-0.178284,-0.498108,-0.795532
60.25,-321.938,-79.25,-1.97,3.49,8.97,12.875,-28.875,3.375,-64.4375,0,223.438,-0.313232,-0.197998,-0.495178,-0.785828
12.9375,-302.188,-95.1875,-0.74,3.94,6.97,12.875,-28.875,3.375,-64.5625,0.4375,226.188,-0.331848,-0.214294,-0.489441,-0.777405
-23.5625,-263.438,-107.625,0.14,4.08,6.87,12.875,-28.875,3.375,-64.375,0.625,228.875,-0.350159,-0.22644,-0.4823,-0.770386
-53.3125,-226.438,-113.75,2.03,3.87,7.34,12.875,-28.875,3.375,-63.875,0.5625,231.312,-0.367676,-0.234924,-0.474182,-0.764709
-80.625,-194.625,-109,3.98,3.11,7.1,12.875,-28.875,3.375,-63.125,0.4375,233.562,-0.384033,-0.24054,-0.465027,-0.760498
-106.312,-174.75,-88.1875,5.23,1.88,5.73,15.5,-27,1.25,-62.125,0.5,235.438,-0.398682,-0.244812,-0.454224,-0.758118
-128.562,-163.625,-51.6875,4.98,1.28,6.18,15.5,-27,1.25,-60.875,0.8125,236.875,-0.410889,-0.248962,-0.441467,-0.757812
-152.125,-152.125,-7.25,4.83,0.56,7.16,15.5,-27,1.25,-59.4375,1.5,237.812,-0.420105,-0.253113,-0.426514,-0.759949
-181.125,-141.188,39.0625,4.74,0.11,7.5,15.5,-27,1.25,-57.6875,2.5,238.25,-0.426514,-0.25708,-0.408997,-0.764648
-212.75,-139.438,86.125,3.88,0.41,6.47,15.5,-27,1.25,-55.6875,3.9375,238.25,-0.430237,-0.261353,-0.388245,-0.771912
-241.125,-144.625,130.312,3.56,0.95,5.47,17.25,-25.875,-5.0625,-53.375,5.8125,237.812,-0.431702,-0.266235,-0.364258,-0.781067
-261.375,-146.812,167.25,7.33,1.01,4.61,17.25,-25.875,-5.0625,-50.875,7.9375,237.062,-0.430847,-0.271423,-0.337769,-0.791565
-266.5,-125.375,208.188,6.55,1.96,2.71,17.25,-25.875,-5.0625,-48.25,10.25,235.875,-0.426453,-0.275879,-0.310486,-0.803528
-254.812,-87.8125,239.25,4.88,1.49,0.41,17.25,-25.875,-5.0625,-45.5625,12.5,234.25,-0.418213,-0.278809,-0.284302,-0.816406
-233.375,-40.25,256.25,5.24,1.2,0.24,17.25,-25.875,-5.0625,-42.9375,14.5625,232.188,-0.40686,-0.279419,-0.26062,-0.829773
-211.812,10.5625,273.875,4.95,1.49,-0.44,14.1875,-25.75,-11.5625,-40.3125,16.25,229.812,-0.392273,-0.277283,-0.239563,-0.843689
-186.562,48.625,288.438,5.89,2.78,-0.24,14.1875,-25.75,-11.5625,-37.75,17.625,227.188,-0.374939,-0.273376,-0.221069,-0.857788
-158.625,72.1875,300.25,6.47,3.5,0.13,14.1875,-25.75,-11.5625,-35.3125,18.8125,224.312,-0.355347,-0.268616,-0.204834,-0.871582
-123.25,78.1875,309.375,5.94,4.37,0.67,14.1875,-25.75,-11.5625,-33.125,19.875,221.312,-0.333862,-0.264343,-0.190979,-0.884399
-78,68.125,312.312,4.73,4.79,1.6,14.1875,-25.75,-11.5625,-31.3125,20.875,218.25,-0.311035,-0.262024,-0.180054,-0.89563
-34.0625,57,304.375,1.91,3.96,4.19,9.0625,-26.375,-16.375,-29.875,21.9375,215.25,-0.287842,-0.261353,-0.17218,-0.90509
-5.875,60.8125,281.312,0.44,3.96,4.64,9.0625,-26.375,-16.375,-28.6875,22.75,212.375,-0.265503,-0.260559,-0.166931,-0.913086
6.375,71.6875,243.625,-0.36,4.24,4.87,9.0625,-26.375,-16.375,-27.75,23.25,209.875,-0.245483,-0.258545,-0.163635,-0.919861
6.3125,67.875,198.875,-0.44,4.73,5.15,9.0625,-26.375,-16.375,-26.9375,23.5625,207.75,-0.228882,-0.256104,-0.161194,-0.925232
-2.5,36.5,155.812,0.96,5.76,6.91,9.0625,-26.375,-16.375,-26.25,23.9375,206.188,-0.216248,-0.25531,-0.158264,-0.928955
-18.125,-11.375,118.688,1.95,5.88,7.33,3.5625,-27.1875,-17.0625,-25.625,24.5,205.062,-0.207458,-0.257446,-0.154114,-0.931091
-36.4375,-58.4375,90,3.58,6.03,7,3.5625,-27.1875,-17.0625,-25,25.375,204.438,-0.201965,-0.262573,-0.148254,-0.931824
-52.4375,-94.4375,70.125,6.61,6.47,9.45,3.5625,-27.1875,-17.0625,-24.375,26.5,204.062,-0.19873,-0.269958,-0.14093,-0.931519
-77.1875,-97.1875,62.5625,10.18,5.56,13.42,3.5625,-27.1875,-17.0625,-23.5625,27.625,203.812,-0.196716,-0.277039,-0.131775,-0.931213
-116.812,-81.0625,66.8125,10.86,5.22,14.16,3.5625,-27.1875,-17.0625,-22.25,28.625,203.625,-0.195068,-0.282227,-0.11969,-0.931641
-163.562,-67,74.9375,11.34,5.19,13.69,0.1875,-26.75,-17.5625,-20.4375,29.4375,203.438,-0.193726,-0.285522,-0.103882,-0.9328
-206.875,-56.5,82.5625,12.44,5.2,13.63,0.1875,-26.75,-17.5625,-18.125,30.25,203.25,-0.192688,-0.287231,-0.0846558,-0.934448
-242.75,-41.8125,91.4375,13.04,4.99,11.1,0.1875,-26.75,-17.5625,-15.3125,30.875,203.125,-0.191589,-0.28717,-0.062561,-0.936401
-264.062,-27.875,99.0625,12.49,4.63,9.52,0.1875,-26.75,-17.5625,-12.25,31.375,202.875,-0.190247,-0.285583,-0.0388184,-0.938477
-267.688,-19.5,102.062,12.38,4.37,8.42,0.1875,-26.75,-17.5625,-9.0625,31.75,202.688,-0.18866,-0.283081,-0.0148315,-0.940247
-255.75,-21.6875,100.5,12.57,3.96,6.92,-3.0625,-24.5625,-20.75,-6,32.0625,202.438,-0.186768,-0.280762,0.00823975,-0.941406
-231.938,-35.9375,95.4375,12.26,3.87,6.55,-3.0625,-24.5625,-20.75,-3.1875,32.5,202.125,-0.18457,-0.279846,0.02948,-0.94165
-200,-47.875,82.5,12.14,3.5,7,-3.0625,-24.5625,-20.75,-0.75,33,201.938,-0.182617,-0.280273,0.0480957,-0.941162
-166.5,-45.4375,63.125,12.24,2.99,8.09,-3.0625,-24.5625,-20.75,1.1875,33.4375,201.812,-0.181335,-0.281006,0.0635376,-0.940247
-139.125,-35,42.5625,12.13,2.48,9,-3.0625,-24.5625,-20.75,2.8125,33.75,201.812,-0.18103,-0.281433,0.0761108,-0.93927
-118.188,-27.0625,22.9375,11.43,2.7,9.04,-5,-18.75,-26.0625,4.125,34,201.938,-0.181824,-0.281616,0.0864868,-0.938171
-98.6875,-22.625,2.25,10.28,3.24,9.47,-5,-18.75,-26.0625,5.0625,34.25,202.188,-0.183838,-0.28186,0.0946655,-0.93689
-82.125,-25.4375,-22.4375,9.58,3.82,10.2,-5,-18.75,-26.0625,5.75,34.5,202.625,-0.187378,-0.282776,0.101074,-0.935242
-73.6875,-43.125,-48.25,9.06,4.69,12.6,-5,-18.75,-26.0625,6.1875,34.9375,203.312,-0.192566,-0.2854,0.106384,-0.9328
-77.875,-72.625,-71.3125,9.4,4.77,12.89,-5,-18.75,-26.0625,6.5,35.75,204.188,-0.199402,-0.290466,0.112,-0.929138
-90.0625,-100.562,-91.875,10.05,4.58,12.36,-6.0625,-15.75,-28.5625,6.8125,36.8125,205.312,-0.207886,-0.297729,0.118469,-0.924194
-101.438,-118.562,-110,10.96,4.44,11.85,-6.0625,-15.75,-28.5625,7.0625,38.0625,206.625,-0.217773,-0.306213,0.125732,-0.918152
-109.375,-127.812,-125.188,12.85,4.34,10.85,-6.0625,-15.75,-28.5625,7.3125,39.4375,208.188,-0.228943,-0.31543,0.133301,-0.911255
-112.188,-131.062,-137.5,13.21,4.37,10.03,-6.0625,-15.75,-28.5625,7.4375,40.875,209.812,-0.240967,-0.324829,0.140747,-0.903625
-107.312,-129.375,-150.438,13.47,4.42,9.69,-6.0625,-15.75,-28.5625,7.3125,42.3125,211.625,-0.253845,-0.334229,0.147461,-0.89563
-97.8125,-125.688,-166.562,14.33,4.35,10.69,-6.6875,-15.0625,-29,6.875,43.75,213.562,-0.267578,-0.343689,0.152771,-0.887085
-90.5,-121.438,-182.75,14.7,4.41,11.29,-6.6875,-15.0625,-29,6.1875,45.0625,215.625,-0.282288,-0.353027,0.156982,-0.878113
-88,-118.188,-196.75,14.99,4.46,11.85,-6.6875,-15.0625,-29,5.1875,46.4375,217.812,-0.297852,-0.362244,0.160461,-0.86853
-90.625,-115.875,-208.062,15.3,4.42,12.15,-6.6875,-15.0625,-29,4,47.6875,220.188,-0.31427,-0.371155,0.163635,-0.858337
-97,-113.188,-217.375,15.67,4.4,12.11,-6.6875,-15.0625,-29,2.6875,48.9375,222.688,-0.331421,-0.3797,0.166809,-0.847412
-102.562,-106,-225.5,15.6,4.43,11.9,-7.0625,-13.5625,-28.5625,1.125,50,225.312,-0.349243,-0.387512,0.1698,-0.83606
-103.875,-93.6875,-233.188,15.48,4.35,11.76,-7.0625,-13.5625,-28.5625,-0.5,50.9375,228.062,-0.367676,-0.394287,0.172241,-0.824402
-101.375,-81.875,-241.812,15.38,4.04,11.58,-7.0625,-13.5625,-28.5625,-2.5,51.6875,230.875,-0.386597,-0.400269,0.173767,-0.8125
-95.1875,-71.5,-250.938,15.16,3.73,11.11,-7.0625,-13.5625,-28.5625,-4.6875,52.1875,233.75,-0.405884,-0.40564,0.174072,-0.800232
-85.9375,-61.3125,-260.062,14.47,3.74,10.83,-7.0625,-13.5625,-28.5625,-7.1875,52.5625,236.688,-0.425415,-0.410522,0.173035,-0.78772
-74.375,-55.625,-268.5,13.42,4.08,10.28,-7.5,-11,-29.25,-9.9375,52.6875,239.688,-0.444885,-0.415405,0.170654,-0.774841
-58.9375,-60,-279,12.89,4.03,9.81,-7.5,-11,-29.25,-13,52.6875,242.75,-0.464233,-0.420959,0.166931,-0.761169
-37.0625,-66.5,-290,11.24,3.98,8.01,-7.5,-11,-29.25,-16.4375,52.625,245.75,-0.483093,-0.427734,0.16156,-0.746704
-9.125,-76.4375,-302.938,10.71,4.18,7.53,-7.5,-11,-29.25,-20.3125,52.375,248.812,-0.501343,-0.436218,0.154236,-0.731201
22.875,-100.062,-325.938,10.47,4.46,7.67,-7.5,-11,-29.25,-24.75,52.0625,252,-0.519104,-0.447388,0.14502,-0.713684
53.625,-123.625,-355.5,10.83,8,7.95,-6.6875,-11.75,-30.875,-29.875,51.5625,255.438,-0.536682,-0.461304,0.133667,-0.693726
80.4375,-141.75,-394.188,13.76,8.65,9.33,-6.6875,-11.75,-30.875,-35.5625,50.625,259.125,-0.554688,-0.477417,0.119934,-0.670776
102.5,-145.25,-427.875,16.06,8.43,9.92,-6.6875,-11.75,-30.875,-41.4375,49.1875,263.125,-0.572876,-0.494446,0.103638,-0.645447
116.875,-133.25,-437.375,17.39,7.92,9.63,-6.6875,-11.75,-30.875,-47,47.125,267.25,-0.59021,-0.510742,0.0853271,-0.619263
126.688,-127.25,-423.188,17.92,7.17,9.46,-6.6875,-11.75,-30.875,-51.9375,44.8125,271.125,-0.60553,-0.526367,0.0667725,-0.59314
136.75,-132.438,-393.188,17.07,7.26,9.51,-4.0625,-14.375,-26.875,-56.375,42.5,274.875,-0.617981,-0.54187,0.0491943,-0.567505
149.25,-147.188,-361.25,16.12,7.54,10.11,-4.0625,-14.375,-26.875,-60.5,40.25,278.312,-0.627441,-0.557861,0.0331421,-0.542175
160.438,-157.125,-342.688,15.27,7.78,10.65,-4.0625,-14.375,-26.875,-64.375,38,281.688,-0.634766,-0.574219,0.0179443,-0.516785
164.938,-150.938,-341.812,15.24,8.3,13.4,-4.0625,-14.375,-26.875,-68,35.5625,285.062,-0.641113,-0.589783,0.0022583,-0.491089
156.562,-132.812,-346.062,14.5,8.33,14.05,-4.0625,-14.375,-26.875,-71.125,32.875,288.5,-0.647217,-0.603516,-0.0142822,-0.465454
133.25,-123.938,-344.688,13.23,8.24,14.36,-2,-18.5,-25.5625,-73.75,30.0625,292.125,-0.653809,-0.614929,-0.0302734,-0.43988
102.812,-135.062,-339.625,11.99,8.11,13.69,-2,-18.5,-25.5625,-75.875,27.25,295.875,-0.661072,-0.624451,-0.0442505,-0.413635
78.875,-148.938,-338.5,10.64,8.09,11.3,-2,-18.5,-25.5625,-77.6875,24.375,299.938,-0.668945,-0.632446,-0.0565186,-0.386414
69.375,-150.375,-345.5,10.27,7.93,10.61,-2,-18.5,-25.5625,-79.25,21.375,304.188,-0.67688,-0.639282,-0.0687256,-0.358337
72.5625,-144.188,-358.938,10.43,7.71,10.58,-2,-18.5,-25.5625,-80.6875,18.1875,308.562,-0.684326,-0.645386,-0.0819702,-0.329407
78.9375,-139.938,-370.5,11.5,6.99,10.91,1.25,-21.5,-23.5,-82,14.875,313.062,-0.690857,-0.650879,-0.0962524,-0.299683
84.0625,-138,-375.375,11.2,6.59,10.96,1.25,-21.5,-23.5,-83.25,11.4375,317.688,-0.696472,-0.655823,-0.110901,-0.269287
88.875,-126.75,-375.188,9.99,6.32,10.45,1.25,-21.5,-23.5,-84.375,7.9375,322.25,-0.700867,-0.660034,-0.12616,-0.239258
97.5,-111.25,-374.25,8.68,6.09,9.88,1.25,-21.5,-23.5,-85.4375,4.4375,326.75,-0.703735,-0.663696,-0.142334,-0.209717
111,-103.062,-375.062,6.34,5.92,7.98,1.25,-21.5,-23.5,-86.5625,0.875,331.312,-0.705017,-0.667236,-0.159119,-0.180237
128.625,-104.938,-377.875,5.72,5.84,7.1,3.875,-22,-21.375,-87.8125,-2.625,335.938,-0.704468,-0.671021,-0.176025,-0.149963
149.312,-116.562,-380.188,6.35,5.11,6.21,3.875,-22,-21.375,-89.1875,-6.3125,340.812,-0.702087,-0.675293,-0.192383,-0.118469
169.562,-137.25,-376.812,6.44,5.12,6.27,3.875,-22,-21.375,-90.625,-9.9375,346,-0.697998,-0.680115,-0.207275,-0.0854492
184.688,-162.75,-368.812,5.43,5.86,6.77,3.875,-22,-21.375,-92.0625,-13.5625,351.5,-0.692383,-0.685242,-0.220093,-0.0510864
196.25,-180.438,-368.562,5.35,6.13,7.32,3.875,-22,-21.375,-93.5625,-17.1875,357.375,-0.685486,-0.690125,-0.231506,-0.0154419
206.438,-179.125,-378.188,5.05,5.92,7.41,9.5,-21.5,-20.5625,-95.0625,-21,3.5,-0.67688,-0.694397,-0.243286,0.0209351
213.125,-162.812,-393.812,4.85,5.44,6.95,9.5,-21.5,-20.5625,-96.625,-24.9375,9.8125,-0.666504,-0.697632,-0.25647,0.057312
219.812,-146.438,-411,5.36,4.74,6.46,9.5,-21.5,-20.5625,-98.3125,-29.0625,16.3125,-0.654175,-0.699829,-0.271179,0.093811
231,-136.625,-424.375,6.2,4.41,6.49,9.5,-21.5,-20.5625,-100.125,-33.3125,23,-0.639709,-0.701111,-0.286621,0.130493
245.688,-125.812,-429.625,7.1,4.07,7,9.5,-21.5,-20.5625,-102.25,-37.625,30,-0.622925,-0.701965,-0.302246,0.166931
261.062,-108.25,-424.875,9.34,3.2,7.58,14,-22.375,-18.1875,-104.688,-41.875,37,-0.603638,-0.702698,-0.317749,0.202209
273.875,-85.125,-410,9.85,2.74,7.51,14,-22.375,-18.1875,-107.688,-45.875,44,-0.582153,-0.703552,-0.332825,0.235291
283.688,-53.6875,-383.438,9.89,2.34,7.39,14,-22.375,-18.1875,-111.25,-49.5625,50.75,-0.558716,-0.705078,-0.347046,0.265137
290.625,-22.9375,-347.438,9.52,2.01,6.8,14,-22.375,-18.1875,-115.438,-52.75,57.1875,-0.533875,-0.707581,-0.359863,0.291199
294.312,-2.1875,-307.562,7.6,1.79,5.91,14,-22.375,-18.1875,-120.188,-55.375,63.375,-0.508484,-0.710999,-0.370667,0.313904
297.5,8.6875,-270.5,6.68,2.35,5.82,19.875,-19.6875,-13.6875,-125.312,-57.5625,69.3125,-0.48291,-0.715088,-0.37915,0.334167
302.375,22.25,-243.625,5.52,3.14,6,19.875,-19.6875,-13.6875,-130.875,-59.25,75.25,-0.456787,-0.719849,-0.386047,0.352234
303.562,33.0625,-229.438,4.62,3.93,6.44,19.875,-19.6875,-13.6875,-136.938,-60.625,81.1875,-0.430176,-0.724731,-0.392029,0.368774
297.5,36.75,-229.188,3.53,4.06,7.56,19.875,-19.6875,-13.6875,-143.312,-61.8125,87.25,-0.403442,-0.728699,-0.397949,0.384521
284.125,41.625,-237.688,3.62,3.98,7.84,19.875,-19.6875,-13.6875,-150.125,-62.6875,93.3125,-0.376648,-0.731384,-0.404602,0.399414
265,52.875,-249.5,4.24,4.06,8.01,24.25,-16.375,-8.5,-157.438,-63.3125,99.4375,-0.349854,-0.732727,-0.412537,0.412964
242.625,68,-260.812,5.47,3.81,8.33,24.25,-16.375,-8.5,-165,-63.5,105.438,-0.323242,-0.732849,-0.422058,0.424683
216.375,90,-267.188,7.88,2.88,8.2,24.25,-16.375,-8.5,-172.438,-63.1875,111.188,-0.296875,-0.732117,-0.433044,0.433899
187.5,122.5,-266.125,8.42,2.39,7.99,24.25,-16.375,-8.5,-179.438,-62.1875,116.688,-0.270935,-0.731262,-0.445557,0.439697
158.5,159.312,-258,8.61,1.89,7.96,24.25,-16.375,-8.5,174.562,-60.5,121.812,-0.245483,-0.730774,-0.459045,0.441528
128.562,191.25,-243.938,8.22,0.44,7.39,28.25,-12.375,-4,169.75,-58.375,126.625,-0.220947,-0.730835,-0.473083,0.439575
96.5,215.438,-226.625,7.94,-0.47,5.88,28.25,-12.375,-4,166.188,-55.875,131,-0.197876,-0.731323,-0.487305,0.434204
68.3125,237,-212.25,7.63,-1.27,3.65,28.25,-12.375,-4,163.562,-53.125,135.062,-0.176025,-0.732117,-0.501709,0.425781
53.9375,259.375,-209.625,7.04,-1.91,1.21,28.25,-12.375,-4,161.562,-50.125,139.25,-0.154114,-0.733093,-0.516357,0.414978
57.25,281.25,-222.312,6.87,-2.08,-1.89,28.25,-12.375,-4,159.688,-46.8125,144.062,-0.130432,-0.733643,-0.531555,0.402771
74.25,300.5,-245.188,7.93,-2,-2.26,30.875,-5.75,2.5,157.812,-43.25,150.125,-0.103943,-0.733276,-0.547241,0.389954
95.5,316.5,-268.875,9.31,-1.8,-1.9,30.875,-5.75,2.5,155.875,-39.4375,157.625,-0.0744629,-0.731628,-0.56311,0.376892
111.312,326.625,-286.125,10.31,-1.5,-1.43,30.875,-5.75,2.5,153.875,-35.375,103,-0.0429077,-0.728577,-0.578918,0.363525
115.625,334.938,-298.688,11.65,-0.92,-1.13,30.875,-5.75,2.5,152.062,-31.1875,101.188,-0.0102539,-0.724121,-0.594482,0.349365
108.125,346.25,-313.562,12.31,-0.66,-1.5,30.875,-5.75,2.5,150.438,-26.8125,99.25,0.0230103,-0.71814,-0.610291,0.333618
91.1875,358.688,-335.25,13.86,-0.78,-1.98,30.875,0.6875,9.6875,149.062,-22.125,97.125,0.0563965,-0.710144,-0.626831,0.315674
66.3125,371.125,-359.5,16.1,-1.13,-2.8,30.875,0.6875,9.6875,148,-17.25,94.75,0.0895386,-0.700012,-0.644226,0.294922
36.1875,383.875,-374.5,21.96,-1.99,-5.23,30.875,0.6875,9.6875,147.375,-12.1875,92.1875,0.121765,-0.688232,-0.661865,0.271057
4.625,397.688,-375.188,24.67,-2.63,-7.04,30.875,0.6875,9.6875,147.188,-7,89.6875,0.15271,-0.675537,-0.678772,0.24408
-21.4375,413.875,-361.5,26.49,-3.25,-8.79,30.875,0.6875,9.6875,147.312,-1.75,87.375,0.182434,-0.662903,-0.693726,0.214355
-35.375,434.062,-336.938,26.63,-4.32,-11.11,26.5,10.5,17.875,147.688,3.5,85.3125,0.211792,-0.650879,-0.705811,0.182556
-38.0625,455.312,-310.375,25.16,-4.76,-12.33,26.5,10.5,17.875,148.062,8.8125,83.625,0.241333,-0.639404,-0.714539,0.149536
-34.625,467.25,-294.188,23.57,-4.94,-13.75,26.5,10.5,17.875,148.375,14.125,82.0625,0.271118,-0.627563,-0.72052,0.116089
-27.8125,463.625,-298.938,22.7,-4.72,-14.78,26.5,10.5,17.875,148.688,19.5,80.4375,0.300476,-0.613892,-0.725281,0.0828857
-16.6875,447.562,-324.062,24.26,-3.33,-14.79,26.5,10.5,17.875,149.062,24.8125,78.5,0.328918,-0.596924,-0.730042,0.050415
-6.6875,428.375,-357.75,26.63,-2.51,-13.99,15.6875,16.375,25.0625,149.562,30.125,76.125,0.35614,-0.576233,-0.735352,0.0184326
-6.4375,411.312,-382.875,29.21,-1.76,-13.22,15.6875,16.375,25.0625,150.438,35.4375,73.4375,0.381531,-0.552673,-0.740784,-0.0134888
-22.6875,394.438,-387,31.5,-1.21,-12.99,15.6875,16.375,25.0625,151.75,40.5625,12.875,0.404236,-0.528198,-0.7453,-0.0457764
-51.5625,376.312,-369.438,33.32,-0.52,-13.9,15.6875,16.375,25.0625,153.688,45.4375,20.9375,0.423828,-0.5047,-0.747986,-0.0783691
-82.8125,359.188,-339.562,32.94,-0.58,-14.65,15.6875,16.375,25.0625,156.125,50,28.25,0.440308,-0.483398,-0.748413,-0.110962
-107.375,346.562,-313.625,32.36,-0.99,-15.35,2.0625,17.375,27.0625,159.125,54.25,35,0.454529,-0.463928,-0.746704,-0.143433
-121.438,338.312,-301.5,32.2,-1.69,-16.02,2.0625,17.375,27.0625,162.875,58.3125,41.1875,0.467102,-0.445129,-0.743469,-0.175781
-126.312,333,-302.438,32.45,-3.09,-17.63,2.0625,17.375,27.0625,167.625,62.1875,47,0.478394,-0.425842,-0.739258,-0.208008
-122.688,331.312,-308.5,32.35,-3.17,-17.81,2.0625,17.375,27.0625,173.75,65.8125,52.25,0.488892,-0.405396,-0.734253,-0.239868
-113.625,328.5,-312.875,31.84,-2.74,-17.7,2.0625,17.375,27.0625,-178.062,69.125,57,0.498596,-0.383728,-0.728516,-0.270874
-104.688,318.312,-312.25,30.11,-1.24,-17.62,-10.5,14.0625,25,-167.438,71.8125,61.25,0.507263,-0.361389,-0.72229,-0.300598
-98.375,294.5,-306.312,28.97,-0.55,-17.64,-10.5,14.0625,25,-154.5,73.5,65.125,0.514099,-0.339233,-0.716064,-0.328491
-91.5625,258,-297.812,27.88,-0.11,-17.52,-10.5,14.0625,25,-140.562,74.125,68.625,0.518555,-0.31781,-0.710449,-0.354126
-82.4375,217.5,-292.312,26.97,0.11,-17.07,-10.5,14.0625,25,-127.75,73.5,71.875,0.520386,-0.297241,-0.705933,-0.377502
-71.4375,176.562,-293.25,25.86,0.79,-14.98,-10.5,14.0625,25,-117.438,72.0625,75,0.519531,-0.277161,-0.702942,-0.398926
-60.75,140.125,-299.562,25.71,1.07,-13.66,-19.875,6.6875,20.875,-109.812,69.9375,78.0625,0.516113,-0.257202,-0.701477,-0.418823
-54.8125,111.5,-307.938,25.54,1.35,-12.35,-19.875,6.6875,20.875,-104.438,67.4375,81.1875,0.510437,-0.237305,-0.701111,-0.437744
-57.1875,88.6875,-314,25.36,1.6,-11.39,-19.875,6.6875,20.875,-100.5,64.625,84.4375,0.502747,-0.217834,-0.701172,-0.456238
-69.3125,69.5,-316.375,25.15,1.6,-10.67,-19.875,6.6875,20.875,-97.5625,61.6875,87.8125,0.493225,-0.19928,-0.701111,-0.474915
-88.6875,52.8125,-313.062,24.85,1.39,-10.74,-19.875,6.6875,20.875,-95.1875,58.75,91.375,0.482117,-0.182251,-0.700317,-0.493896
-109.562,38.875,-303.688,24.12,1.18,-10.97,-23,-1.5,19,-93.25,55.875,95,0.469849,-0.167053,-0.698547,-0.513123
-126.688,24.25,-288.938,22.79,1.05,-11.3,-23,-1.5,19,-91.5,53.0625,98.6875,0.456848,-0.153931,-0.695923,-0.532227
-137.875,5.3125,-274.062,19.12,1.48,-11.33,-23,-1.5,19,-90.0625,50.4375,102.375,0.442871,-0.142822,-0.692871,-0.550842
-143.75,-17,-265.688,17.71,1.88,-11.04,-23,-1.5,19,-88.875,47.875,106.062,0.427612,-0.133423,-0.689819,-0.568787
-147.25,-43.375,-264.812,16.81,2.16,-10.59,-23,-1.5,19,-88,45.3125,109.938,0.410583,-0.125305,-0.687073,-0.586243
-150.438,-70.4375,-269.312,16.68,2.18,-10.14,-23.375,-9.25,18.5625,-87.25,42.75,114,0.391418,-0.118347,-0.684631,-0.603333
-153.438,-92.625,-274,16.91,1.76,-8.74,-23.375,-9.25,18.5625,-86.6875,40.125,118.25,0.370422,-0.112244,-0.682373,-0.620117
-156.375,-109.125,-273.062,16.42,1.66,-7.94,-23.375,-9.25,18.5625,-86.1875,37.5625,122.625,0.348206,-0.107117,-0.679932,-0.636414
-160.688,-125.062,-267.625,15.46,1.77,-7.04,-23.375,-9.25,18.5625,-85.625,35.0625,127,0.325073,-0.103149,-0.677124,-0.6521
-168,-143.125,-262.312,13.26,2.12,-5.16,-23.375,-9.25,18.5625,-85.0625,32.625,131.438,0.300842,-0.100586,-0.673767,-0.667358
-198.25,-187.312,-264.938,12.22,2.3,-4.35,-19.375,-17.375,17.75,-84.375,30.25,136.375,0.273438,-0.101074,-0.66925,-0.683472
-198.25,-187.312,-264.938,11.23,2.3,-3.98,-19.375,-17.375,17.75,-83.625,27.875,141.25,0.245728,-0.10144,-0.664062,-0.698853
-221.75,-214,-271.438,10.57,2.11,-3.96,-19.375,-17.375,17.75,-82.6875,25.5,146.375,0.215637,-0.103394,-0.657349,-0.714661
-246.812,-238.688,-281.812,10.21,1.33,-4.85,-19.375,-17.375,17.75,-81.5,23.125,151.812,0.183105,-0.106567,-0.648804,-0.730896
-286.875,-278.25,-307.438,11.05,0.47,-5.7,-19.375,-17.375,17.75,-80,20.625,157.875,0.146179,-0.111206,-0.637573,-0.748169
-294.188,-290.125,-315.812,12.23,-0.33,-6.42,-13.5,-24.0625,18.1875,-78.3125,18.125,163.938,0.107727,-0.116089,-0.624939,-0.764465
-294.188,-290.125,-315.812,13.25,-0.91,-6.8,-13.5,-24.0625,18.1875,-76.5,15.75,169.812,0.0690308,-0.120667,-0.611084,-0.779236
-291.375,-292.438,-317.938,15.16,-2.16,-6.34,-13.5,-24.0625,18.1875,-74.625,13.5,175.625,0.0300293,-0.125122,-0.596252,-0.792419
-271,-273.125,-304.25,15.61,-2.81,-5.78,-13.5,-24.0625,18.1875,-72.75,11.4375,180.938,-0.00695801,-0.128662,-0.581543,-0.803223
-260.562,-259.25,-289.062,15.32,-3.37,-5.35,-13.5,-24.0625,18.1875,-70.8125,9.5625,185.875,-0.0421143,-0.131775,-0.566406,-0.812439
-252.688,-249.875,-273,14.75,-3.77,-4.86,-2.75,-30,14.0625,-68.875,7.875,190.5,-0.0755615,-0.134888,-0.550842,-0.82019
-249.5,-247.875,-259.125,12.73,-4.31,-3.94,-2.75,-30,14.0625,-66.8125,6.5,194.812,-0.107788,-0.138306,-0.534546,-0.826721
-250.5,-251.125,-249.875,11.97,-4.63,-3.65,-2.75,-30,14.0625,-64.75,5.25,199,-0.139404,-0.142151,-0.517334,-0.832275
-253.938,-256,-244.625,11.36,-4.84,-3.41,-2.75,-30,14.0625,-62.5625,4.25,203.062,-0.170776,-0.146362,-0.499084,-0.836853
-258.312,-260.562,-242.5,11.55,-5.49,-2.99,-2.75,-30,14.0625,-60.3125,3.375,207,-0.201965,-0.150757,-0.479736,-0.840454
-263.375,-264.75,-239.375,11.83,-5.56,-2.49,6.0625,-31.5,7.1875,-57.9375,2.6875,210.875,-0.232849,-0.155273,-0.459229,-0.843079
-269,-269.25,-231.938,12.38,-5.72,-1.88,6.0625,-31.5,7.1875,-55.4375,2.25,214.562,-0.263184,-0.160034,-0.4375,-0.844849
-275.5,-268.812,-218.875,13.46,-6.2,-1.3,6.0625,-31.5,7.1875,-52.9375,2.0625,218.062,-0.292236,-0.164856,-0.414551,-0.845886
-279.375,-261.875,-201.5,13.43,-8.04,-1.39,6.0625,-31.5,7.1875,-50.375,2.125,221.312,-0.319458,-0.169556,-0.390686,-0.846497
-276.375,-252.125,-184.5,12.73,-8.75,-1.27,6.0625,-31.5,7.1875,-47.8125,2.375,224.312,-0.344727,-0.173889,-0.366516,-0.846497
-276.375,-241.062,-172.125,11.65,-9.23,-1.31,12.75,-29.875,-3,-45.375,2.75,227,-0.368164,-0.177979,-0.342896,-0.845703
-245.812,-233.562,-164.938,10.66,-9.61,-1.43,12.75,-29.875,-3,-43.125,3.25,229.625,-0.390259,-0.182129,-0.320374,-0.84375
-220.125,-235.562,-160.312,9,-10.35,-2.19,12.75,-29.875,-3,-41.1875,3.875,232.125,-0.411255,-0.187256,-0.299255,-0.840393
-190.875,-247,-155.5,8.43,-10.53,-2.14,12.75,-29.875,-3,-39.5,4.75,234.562,-0.431335,-0.194153,-0.279419,-0.835571
-165,-266.438,-149.812,7.94,-10.56,-1.5,12.75,-29.875,-3,-38.1875,5.875,237,-0.450745,-0.203308,-0.260437,-0.829285
-165,-293.812,-143.312,7.58,-10.56,-0.54,15.75,-25.875,-12.75,-37.0625,7.25,239.438,-0.469543,-0.215027,-0.241211,-0.821655
-148.375,-327.062,-137.125,7.74,-10.32,2.57,15.75,-25.875,-12.75,-36.0625,9,241.938,-0.488159,-0.229004,-0.22052,-0.812805
-155.938,-360.75,-131.375,8.26,-10.11,4.26,15.75,-25.875,-12.75,-35.125,11.125,244.5,-0.506592,-0.244751,-0.197388,-0.802795
-175.875,-386.188,-124.75,9.27,-9.96,5.68,15.75,-25.875,-12.75,-34.125,13.5,247,-0.524719,-0.261169,-0.171387,-0.79187
-198.188,-396.562,-114.375,12.64,-10.63,7.55,15.75,-25.875,-12.75,-33,16.0625,249.562,-0.542114,-0.277039,-0.142944,-0.780334
-198.188,-394.812,-94.8125,13.86,-11.31,7.78,15.375,-20.25,-20.0625,-31.8125,18.8125,251.875,-0.557739,-0.291809,-0.112793,-0.768799
-220.25,-384,-66,14.37,-12.1,7.49,15.375,-20.25,-20.0625,-30.5625,21.625,253.938,-0.57074,-0.305542,-0.0819702,-0.757751
-206.5,-367.438,-31.4375,14.27,-12.73,6.93,15.375,-20.25,-20.0625,-29.4375,24.5625,255.562,-0.580261,-0.318665,-0.0518188,-0.747742
-180.188,-348.812,2.5,13.68,-12.77,7.91,15.375,-20.25,-20.0625,-28.5,27.5625,256.812,-0.586121,-0.331726,-0.0232544,-0.738831
-158,-328.438,31.125,13.88,-12.26,10.46,15.375,-20.25,-20.0625,-27.625,30.5,257.688,-0.588989,-0.344299,0.00372314,-0.73114
-158,-309.562,56.1875,13.75,-11.49,13.68,9.75,-15.5625,-27.375,-26.6875,33.375,258.25,-0.589722,-0.355469,0.0303955,-0.724548
-156.062,-292.312,78.9375,12.99,-10.6,16.46,9.75,-15.5625,-27.375,-25.375,36.25,258.625,-0.589111,-0.364197,0.0580444,-0.718933
-207.938,-275.562,97.8125,11.23,-9.59,19.79,9.75,-15.5625,-27.375,-23.5625,39.125,258.938,-0.587952,-0.369934,0.0874023,-0.713989
-242.938,-260.312,112.125,10.66,-9.61,20.08,9.75,-15.5625,-27.375,-21.1875,41.8125,259.125,-0.586609,-0.372559,0.118408,-0.70929
-268.25,-246.125,121.812,10.33,-9.72,19.41,9.75,-15.5625,-27.375,-18.25,44.5,259.375,-0.584961,-0.37262,0.150452,-0.704529
-268.25,-230.25,126.812,10.36,-9.89,18.53,2.375,-11.0625,-31.875,-15.0625,46.9375,259.562,-0.582825,-0.371033,0.182007,-0.699707
-273.562,-213.125,130.125,11.27,-10.27,18.39,2.375,-11.0625,-31.875,-11.6875,49.25,259.625,-0.579773,-0.368591,0.211914,-0.695068
-239.312,-194.5,133.938,12.01,-10.12,19.27,2.375,-11.0625,-31.875,-8.25,51.3125,259.562,-0.575623,-0.365723,0.239563,-0.69104
-239.312,-174.688,140.562,13.06,-9.65,20.43,2.375,-11.0625,-31.875,-4.625,53.1875,259.312,-0.570374,-0.362427,0.264954,-0.687805
-217.062,-149.25,149.5,14.07,-7.63,23.42,2.375,-11.0625,-31.875,-0.875,54.6875,258.875,-0.56427,-0.358093,0.288147,-0.685852
-185.562,-118.062,158.562,14.31,-6.51,25.14,-4.5625,-5.1875,-33.875,3.125,55.8125,258.25,-0.557678,-0.352112,0.309204,-0.68512
-180.75,-84.75,165.812,14.1,-5.57,26,-4.5625,-5.1875,-33.875,7.375,56.5,257.562,-0.551086,-0.344116,0.328552,-0.685547
-180.75,-50.875,168.188,13.68,-5.06,26.01,-4.5625,-5.1875,-33.875,11.625,56.6875,256.812,-0.544922,-0.334167,0.345825,-0.68689
-174.75,-17.25,167.062,13.39,-4.44,24.46,-4.5625,-5.1875,-33.875,15.625,56.4375,256,-0.539062,-0.322937,0.360474,-0.689331
-158.688,13.0625,164.75,13.04,-3.81,23.99,-4.5625,-5.1875,-33.875,19.0625,55.875,255.125,-0.533386,-0.311157,0.371948,-0.693054
-130.75,36.1875,161.188,12.57,-2.92,23.97,-8.6875,1.5,-32.5,22,55,254.438,-0.529358,-0.298584,0.38092,-0.696777
-61.1875,50.1875,154.75,12.18,-1.91,24.1,-8.6875,1.5,-32.5,24.25,53.9375,253.312,-0.523376,-0.287903,0.386169,-0.702942
-61.1875,60.5,143.688,11.05,0.05,23.64,-8.6875,1.5,-32.5,25.875,52.8125,252.125,-0.517395,-0.278381,0.38855,-0.709839
-26.5625,71,126.562,11.01,0.84,23.47,-8.6875,1.5,-32.5,26.8125,51.6875,251,-0.511963,-0.270325,0.387939,-0.717224
7.5,81.1875,105.312,11.39,1.51,23.25,-8.6875,1.5,-32.5,27.125,50.5,249.938,-0.507263,-0.263611,0.384399,-0.724854
39.6875,91.125,82.8125,12.11,1.97,22.81,-8.375,6.25,-32.5,26.8125,49.375,249.625,-0.507874,-0.256104,0.379517,-0.729675
69.5625,102.188,61.4375,14.22,3.09,22.64,-8.375,6.25,-32.5,26,48.1875,248.812,-0.505249,-0.251953,0.370544,-0.737549
96.3125,111.5,43.625,15.23,3.57,23.07,-8.375,6.25,-32.5,24.75,47.0625,248.062,-0.50354,-0.248535,0.359436,-0.7453
115.562,121.688,30.375,16.12,3.88,23.57,-8.375,6.25,-32.5,23.3125,45.875,247.438,-0.502625,-0.245178,0.347046,-0.752869
124.375,128.438,23.6875,17.84,3.7,24.13,-8.375,6.25,-32.5,21.875,44.625,246.875,-0.502319,-0.241516,0.334229,-0.76001
122.438,133.062,21.4375,18.83,3.02,24.09,-5,5.1875,-33.375,20.5,43.375,246.438,-0.502319,-0.237122,0.321777,-0.766785
113.062,144.938,19.5625,19.79,2.09,23.52,-5,5.1875,-33.375,19.25,41.9375,246.062,-0.502869,-0.231506,0.309326,-0.773193
101.875,166.938,17.5,20.54,0.98,22.37,-5,5.1875,-33.375,18,40.375,245.75,-0.50415,-0.224182,0.296326,-0.779602
95.6875,192.312,17.75,20.59,-1.49,18.6,-5,5.1875,-33.375,16.75,38.5625,245.5,-0.505798,-0.215271,0.28186,-0.786377
99.875,212.688,20.375,19.84,-2.4,17.03,-5,5.1875,-33.375,15.3125,36.5,245.125,-0.507324,-0.205566,0.265381,-0.793701
115.562,219.438,21.9375,18.48,-3.08,16.21,-2,2.5625,-33.25,13.75,34.4375,244.75,-0.50824,-0.196289,0.247009,-0.801331
138.938,210.25,16.4375,16.36,-3.61,15.41,-2,2.5625,-33.25,11.9375,32.375,244.312,-0.508667,-0.188721,0.227051,-0.808777
164.75,189.375,-1.375,12.9,-4.43,13.3,-2,2.5625,-33.25,9.875,30.625,243.938,-0.509155,-0.184082,0.205566,-0.815247
193.5,168.562,-30.4375,11.95,-4.77,12.26,-2,2.5625,-33.25,7.375,29,243.75,-0.510498,-0.182739,0.182129,-0.820251
227.625,157.938,-64.875,11.55,-4.88,11.38,-2,2.5625,-33.25,4.3125,27.5625,243.812,-0.513123,-0.184265,0.155762,-0.82373
267.25,160.688,-95.6875,11.87,-4.8,11.4,2.75,-0.375,-33.25,0.875,26.0625,244.062,-0.516846,-0.187561,0.125854,-0.825745
306.938,167.25,-115.5,12.25,-3.22,13.53,2.75,-0.375,-33.25,-2.8125,24.4375,244.438,-0.521118,-0.19165,0.0932617,-0.826477
336,169.188,-125.562,11.84,-2.59,14.19,2.75,-0.375,-33.25,-6.6875,22.6875,244.875,-0.525269,-0.196045,0.0594482,-0.825928
347.562,168.438,-129.125,11.06,-2.35,14.4,2.75,-0.375,-33.25,-10.375,20.875,245.375,-0.529114,-0.200012,0.0259399,-0.824219
342.5,166.375,-130,10.14,-2.38,13.97,2.75,-0.375,-33.25,-13.875,19.0625,245.875,-0.532776,-0.203186,-0.00640869,-0.821472
326.25,159.438,-129.938,7.66,-2.81,11.31,7.1875,-6.6875,-32.0625,-17.0625,17.25,246.438,-0.536194,-0.20575,-0.0370483,-0.81781
306.312,148.562,-131.375,6.27,-2.81,9.76,7.1875,-6.6875,-32.0625,-20.125,15.4375,247.062,-0.53949,-0.20813,-0.0661011,-0.813171
290.5,139.688,-136.938,4.96,-2.85,8.1,7.1875,-6.6875,-32.0625,-23.0625,13.75,247.812,-0.542969,-0.21051,-0.0941772,-0.807495
281.688,133.188,-144.438,3.25,-2.97,4.76,7.1875,-6.6875,-32.0625,-25.875,11.9375,248.625,-0.54657,-0.212952,-0.121765,-0.800659
278.312,127.438,-153,2.35,-2.8,2.94,7.1875,-6.6875,-32.0625,-28.75,10.1875,249.5,-0.550354,-0.215576,-0.149231,-0.792725
279,120.375,-162.75,1.53,-2.62,1.44,11.6875,-14.0625,-25.875,-31.625,8.375,250.562,-0.554321,-0.218506,-0.176636,-0.783447
282.938,113.75,-171.938,1.15,-2.32,0.25,11.6875,-14.0625,-25.875,-34.5,6.5625,251.688,-0.558472,-0.221802,-0.204102,-0.772827
287.688,108.562,-177.188,1.28,-1.99,-1.71,11.6875,-14.0625,-25.875,-37.375,4.6875,252.875,-0.562439,-0.22522,-0.231445,-0.761169
290.688,102.562,-175.812,1.54,-1.76,-1.39,11.6875,-14.0625,-25.875,-40.25,2.875,254.125,-0.565979,-0.228943,-0.25824,-0.748718
290.688,90.6875,-165,1.67,-1.55,-0.23,11.6875,-14.0625,-25.875,-43,1.125,255.375,-0.568787,-0.232849,-0.283325,-0.736206
280,90.6875,-145.75,1.92,-1.34,1.36,16.5,-16.75,-20.5625,-45.4375,-0.25,256.438,-0.570984,-0.236877,-0.305237,-0.724365
251.438,72.5625,-122.688,2.66,-1.42,3.27,16.5,-16.75,-20.5625,-47.4375,-1.5625,257.438,-0.572632,-0.239807,-0.323242,-0.714172
206.812,67.0625,-99.375,2.54,-1.71,3.09,16.5,-16.75,-20.5625,-48.9375,-2.6875,258.125,-0.573547,-0.24054,-0.33783,-0.706421
155.5,78.375,-78,2.49,-2.05,2.54,16.5,-16.75,-20.5625,-49.9375,-3.75,258.562,-0.573792,-0.238708,-0.349487,-0.701172
105.188,95.1875,-58.375,2.65,-2.38,1.95,16.5,-16.75,-20.5625,-50.5625,-4.8125,258.75,-0.573181,-0.234314,-0.358887,-0.698425
61,95.1875,-38,2.04,-2.55,-0.91,21.0625,-19.375,-15.25,-50.875,-5.8125,258.938,-0.573364,-0.228577,-0.366333,-0.696289
27.5625,119.875,-18.1875,0.86,-2.47,-2.82,21.0625,-19.375,-15.25,-51.0625,-6.8125,258.438,-0.569946,-0.220093,-0.373779,-0.697815
6.8125,140.625,-3.875,-0.57,-2.2,-4.55,21.0625,-19.375,-15.25,-51.1875,-7.6875,257.812,-0.565796,-0.211548,-0.380493,-0.700256
-2.25,123.062,2.25,-2.09,-1.68,-6.03,21.0625,-19.375,-15.25,-51.25,-8.4375,257.25,-0.561707,-0.204224,-0.386169,-0.702637
-2.625,89.5,1.8125,-2.65,-1.36,-6.04,21.0625,-19.375,-15.25,-51.375,-8.9375,256.812,-0.558655,-0.198914,-0.39032,-0.704285
-1.0625,89.5,1.8125,-2.82,-1.12,-5.33,21.375,-19.75,-12,-51.4375,-9.3125,256.875,-0.558777,-0.196472,-0.392395,-0.703735
0.375,51.0625,-6.125,-2.66,-0.98,-4.18,21.375,-19.75,-12,-51.4375,-9.5625,256.938,-0.559143,-0.194397,-0.393738,-0.703186
-1,11.5,-33.75,-1.81,-0.71,-1.98,21.375,-19.75,-12,-51.3125,-9.875,257.188,-0.560913,-0.192261,-0.39447,-0.702026
-6.75,12.875,-45.8125,-1.29,-0.65,-1.45,21.375,-19.75,-12,-51.125,-10.3125,257.562,-0.563477,-0.189148,-0.394775,-0.700623
-17.3125,16.0625,-53.1875,-0.85,-0.67,-1.38,21.375,-19.75,-12,-50.8125,-10.8125,258,-0.566589,-0.184998,-0.394531,-0.699402
-30.75,16.0625,-53.1875,-0.85,-0.6,-1.77,22.5,-20.0625,-11.1875,-50.375,-11.3125,258.688,-0.571716,-0.181152,-0.39325,-0.696899
-42.4375,18.125,-53.6875,0.2,-0.53,-2.9,22.5,-20.0625,-11.1875,-49.875,-11.8125,259,-0.574524,-0.175903,-0.392212,-0.696533
-48.625,28.3125,-38.25,0.39,-0.64,-3.26,22.5,-20.0625,-11.1875,-49.375,-12.3125,259.188,-0.576538,-0.170593,-0.391296,-0.696716
-48.5625,31.9375,-24.125,0.42,-0.76,-3.31,22.5,-20.0625,-11.1875,-48.9375,-12.6875,259.25,-0.577576,-0.16571,-0.390503,-0.697449
-45.6875,30.875,-7.6875,0.34,-0.75,-3.37,22.5,-20.0625,-11.1875,-48.5625,-12.9375,259.125,-0.577637,-0.161438,-0.389465,-0.698975
-44.375,30.875,-7.6875,0.34,-0.31,-3.42,23.25,-18.5,-9.5,-48.1875,-13.0625,259,-0.577698,-0.158325,-0.387939,-0.7005
-44.4375,28.4375,7.1875,-0.38,-0.04,-3.28,23.25,-18.5,-9.5,-47.8125,-13.125,258.688,-0.576477,-0.154968,-0.38623,-0.703186
-46.625,25.5625,22.625,-0.81,0.13,-3,23.25,-18.5,-9.5,-47.375,-13.125,258.25,-0.574951,-0.151733,-0.384155,-0.706299
-50.9375,25.5625,27.375,-1.42,0.45,-2.14,23.25,-18.5,-9.5,-46.9375,-13.0625,257.812,-0.573181,-0.148315,-0.381653,-0.709778
-57.25,23.625,32.0625,-1.8,0.48,-2.03,23.25,-18.5,-9.5,-46.375,-13,257.312,-0.571289,-0.144775,-0.378479,-0.713745
-65.25,23.625,32.0625,-1.8,0.48,-1.92,24.375,-17.75,-10.6875,-45.75,-12.875,257.062,-0.571289,-0.142273,-0.373962,-0.716614
-74.5625,16.5,36.75,-2.08,0.5,-1.72,24.375,-17.75,-10.6875,-45,-12.625,256.562,-0.56958,-0.13916,-0.368652,-0.721313
-83.8125,-3.6875,46.1875,-2.06,0.99,-1.3,24.375,-17.75,-10.6875,-44.1875,-12.3125,256,-0.567932,-0.136353,-0.362183,-0.72644
-93.8125,-12.375,49.6875,-1.96,1.42,-1.37,24.375,-17.75,-10.6875,-43.1875,-11.875,255.438,-0.566467,-0.133545,-0.354553,-0.731873
-105.5,-25.0625,50.5,-1.83,1.7,-1.5,24.375,-17.75,-10.6875,-42.125,-11.375,254.938,-0.565369,-0.130981,-0.345459,-0.737427
-117.438,-25.0625,50.5,-1.83,1.7,-1.5,23.5625,-17,-13.1875,-40.875,-10.75,255,-0.568481,-0.13031,-0.334534,-0.740234
-126.75,-38.9375,47.1875,-1.74,1.81,-1.75,23.5625,-17,-13.1875,-39.625,-10.125,254.688,-0.568726,-0.128174,-0.323486,-0.7453
-132,-50.4375,33,-0.03,0.94,-1.78,23.5625,-17,-13.1875,-38.3125,-9.5625,254.375,-0.569397,-0.125793,-0.312195,-0.75
-134.312,-44.0625,26.5625,0.7,0.44,-1.44,23.5625,-17,-13.1875,-36.9375,-9.0625,254.125,-0.570312,-0.122681,-0.301025,-0.754333
-137.688,-35.75,23.5625,1.45,-0.11,-1.08,23.5625,-17,-13.1875,-35.5625,-8.6875,253.938,-0.571167,-0.11853,-0.289795,-0.758789
-145.25,-35.75,23.5625,2.15,-0.95,-0.59,22.5,-16.6875,-14.25,-34,-8.25,254,-0.574158,-0.114624,-0.277405,-0.761719
-157.938,-34,26.9375,2.15,-0.95,-0.59,22.5,-16.6875,-14.25,-32.375,-7.6875,253.625,-0.574463,-0.109924,-0.263672,-0.767029
-173.062,-66,51.5,2.13,-1.47,-0.25,22.5,-16.6875,-14.25,-30.5625,-6.875,253.188,-0.57428,-0.106201,-0.247742,-0.77301
-188.312,-91.375,65.4375,1.27,-1.1,-0.94,22.5,-16.6875,-14.25,-28.625,-5.8125,252.688,-0.573547,-0.103821,-0.229675,-0.779419
-200,-111.062,72.75,0.69,-0.76,-1.17,22.5,-16.6875,-14.25,-26.6875,-4.5,252.125,-0.572632,-0.102661,-0.210144,-0.785767
-204.125,-111.062,72.75,0.4,-0.59,-0.96,22.5,-15.1875,-16.375,-24.6875,-3.1875,251.625,-0.571594,-0.10199,-0.190308,-0.791626
-202.188,-119,71.5625,0.33,-0.41,-0.49,22.5,-15.1875,-16.375,-22.8125,-1.875,251.188,-0.570801,-0.101318,-0.170593,-0.796753
-199.875,-123.062,56.4375,0.95,-0.32,0.9,22.5,-15.1875,-16.375,-20.8125,-0.5625,250.875,-0.570435,-0.100586,-0.150452,-0.801147
-203.562,-133.125,49.875,1.41,-0.57,1.57,22.5,-15.1875,-16.375,-18.75,0.75,250.625,-0.570435,-0.0999146,-0.129089,-0.804993
-214.125,-144.75,43.625,1.81,-0.98,2.22,22.5,-15.1875,-16.375,-16.5,2.1875,250.438,-0.570801,-0.0991211,-0.10614,-0.808105
-229.312,-144.75,43.625,2.08,-1.63,2.88,19.5625,-13,-21.25,-14.125,3.8125,250.375,-0.571655,-0.0983887,-0.0812378,-0.810486
-247.375,-159.375,36.0625,3.53,-3.33,4.21,19.5625,-13,-21.25,-11.5625,5.5625,250.375,-0.572998,-0.0980225,-0.0539551,-0.81189
-267.125,-203.938,21.5625,5.3,-4.23,5.33,19.5625,-13,-21.25,-8.8125,7.5,250.5,-0.574524,-0.0980835,-0.0241089,-0.812195
-288.312,-223,19.625,7.44,-4.97,6.69,19.5625,-13,-21.25,-5.75,9.6875,250.688,-0.575928,-0.0982056,0.00823975,-0.811523
-312.125,-241.188,26.25,9.74,-5.8,7.27,19.5625,-13,-21.25,-2.4375,12.0625,250.812,-0.576416,-0.0980835,0.0435791,-0.810059
-341.25,-241.188,26.25,9.74,-6.81,5.99,16.5625,-8.5,-26.1875,1.125,14.625,250.875,-0.575195,-0.0980225,0.0819092,-0.807983
-367.562,-264.438,42.0625,13.05,-7.3,5.93,16.5625,-8.5,-26.1875,5,17.3125,250.688,-0.571716,-0.0982666,0.121887,-0.805359
-379.75,-280.375,79.125,14.11,-8.41,6.67,16.5625,-8.5,-26.1875,9.0625,19.875,250.375,-0.566101,-0.0980835,0.161804,-0.802307
-380,-267.5,89.1875,14.48,-10.93,9.17,16.5625,-8.5,-26.1875,13.25,22.25,249.938,-0.559082,-0.0968018,0.200806,-0.798584
-378.625,-257.438,93.4375,14.49,-12.17,10.09,16.5625,-8.5,-26.1875,17.5625,24.4375,249.5,-0.551147,-0.0945435,0.239258,-0.793762
-380.562,-257.438,93.4375,14.49,-12.17,10.73,11.0625,-1.1875,-31.5,22.0625,26.4375,249.062,-0.542358,-0.0919189,0.277283,-0.78772
-382.062,-255.188,92.9375,15.13,-13.15,11.31,11.0625,-1.1875,-31.5,26.6875,28.3125,248.625,-0.532776,-0.0892944,0.314514,-0.780518
-378,-246.625,95.375,17.2,-16.38,11.39,11.0625,-1.1875,-31.5,31.375,29.9375,248.062,-0.522339,-0.0863647,0.350342,-0.772644
-367.812,-237.375,98.625,18.08,-17.37,11.45,11.0625,-1.1875,-31.5,36,31.3125,247.5,-0.511108,-0.0834351,0.384155,-0.764343
-350.875,-226.062,100.562,16.78,-18.79,11.36,11.0625,-1.1875,-31.5,40.4375,32.4375,246.812,-0.499268,-0.0807495,0.415283,-0.756165
-323.812,-226.062,100.562,16.78,-18.79,11.36,4.375,7.25,-33.1875,44.4375,33.25,246.188,-0.488098,-0.0782471,0.442505,-0.74823
-286.688,-200.938,91.125,16.62,-19.91,12.69,4.375,7.25,-33.1875,47.9375,33.9375,245.75,-0.478943,-0.0761108,0.465332,-0.740479
-246.875,-138.812,37.5625,14.51,-20.7,16.51,4.375,7.25,-33.1875,50.8125,34.5,245.562,-0.472351,-0.0748901,0.48407,-0.732788
-207.5,-124.25,8.8125,14.92,-20.04,17.27,4.375,7.25,-33.1875,53.125,35.1875,245.625,-0.467712,-0.0755615,0.499329,-0.725403
-166.688,-120.688,-6.8125,15.96,-19.73,18.31,4.375,7.25,-33.1875,54.9375,35.9375,245.625,-0.463806,-0.0784302,0.511475,-0.719177
-121.875,-120.688,-6.8125,15.96,-19.73,18.31,4.375,14.6875,-30.6875,56.375,36.625,245.875,-0.46228,-0.0807495,0.520935,-0.713074
-79.0625,-113.875,-7.125,18.35,-18.72,20.63,1,14.6875,-30.6875,57.3125,37.0625,245.625,-0.458374,-0.0844116,0.526978,-0.710632
-42.0625,-52.9375,16.1875,17.99,-16.36,22.25,1,14.6875,-30.6875,57.8125,37.1875,245.25,-0.455139,-0.0864868,0.529785,-0.710449
-10.625,-13.4375,30.5,15.89,-14.25,23.05,1,14.6875,-30.6875,57.875,37,244.875,-0.452576,-0.0864258,0.529724,-0.712097
13.0625,17.375,43.375,14.65,-13.31,22.96,1,14.6875,-30.6875,57.6875,36.5625,244.375,-0.450562,-0.0845337,0.527588,-0.71521
29.4375,17.375,43.375,14.65,-12.46,22.65,-0.75,16.875,-29.375,57.25,35.9375,243.875,-0.448914,-0.0812988,0.523926,-0.719299
41.1875,41.125,52.75,13.36,-11.65,22.32,-0.75,16.875,-29.375,56.625,35.1875,243.375,-0.44751,-0.0772095,0.518921,-0.724243
52.8125,66.25,60.5,9.89,-10.35,21.62,-0.75,16.875,-29.375,55.8125,34.3125,242.875,-0.446228,-0.072998,0.512756,-0.729797
65.6875,69,57.875,9.05,-10.09,21.31,-0.75,16.875,-29.375,54.875,33.5,242.312,-0.445129,-0.0692139,0.505554,-0.73584
80.25,67.1875,48.0625,8.7,-10.18,20.8,-0.75,16.875,-29.375,53.8125,32.6875,241.812,-0.444458,-0.0665894,0.497314,-0.742126
95.875,67.1875,48.0625,8.7,-10.18,20.6,-0.25,16.875,-29.25,52.5,32.0625,241.375,-0.444519,-0.0653687,0.487854,-0.748413
113.312,66.0625,32.25,9.05,-10.48,20.84,-0.25,16.875,-29.25,50.9375,31.5,241.125,-0.44574,-0.0650635,0.476868,-0.754761
131.812,85.1875,4.0625,11.71,-12.18,21.05,-0.25,16.875,-29.25,49.125,31,240.938,-0.448059,-0.0650635,0.464111,-0.761292
148.812,102.25,1,12.07,-12.65,21.15,-0.25,16.875,-29.25,47.125,30.3125,240.812,-0.45105,-0.0646362,0.449768,-0.768188
162.5,120.25,4.875,12.09,-13.06,20.69,-0.25,16.875,-29.25,45,29.4375,240.688,-0.454285,-0.0632324,0.433899,-0.775452
173.188,120.25,4.875,12.09,-13.06,20.69,1.5,14.25,-30.75,42.6875,28.375,240.562,-0.457458,-0.06073,0.416443,-0.783386
185.5,138.625,13.1875,11.87,-13.7,18.73,1.5,14.25,-30.75,40.3125,27.125,240.312,-0.460205,-0.0575562,0.397217,-0.791931
200.812,164.938,29.5,10.61,-13.99,17.11,1.5,14.25,-30.75,37.875,25.75,240,-0.462585,-0.053894,0.376404,-0.800903
216,171.188,31.25,9.79,-13.94,16,1.5,14.25,-30.75,35.25,24.1875,239.688,-0.464722,-0.050293,0.354126,-0.809998
230.625,172.125,28.875,8.11,-13.56,13.16,1.5,14.25,-30.75,32.5625,22.6875,239.312,-0.466736,-0.0473633,0.330505,-0.81897
246.75,172.125,28.875,8.11,-13.56,13.16,1.5,14.25,-31.5625,29.75,21.1875,239,-0.468384,-0.0455933,0.305725,-0.827698
263.875,165.125,24.8125,7.14,-13.16,11.84,4.0625,10.5625,-31.5625,26.875,19.875,238.625,-0.469604,-0.0459595,0.280457,-0.835876
278.938,118,10.3125,6.21,-11.13,8.62,4.0625,10.5625,-31.5625,23.9375,18.8125,238.25,-0.470337,-0.0489502,0.255127,-0.843384
291.75,102.125,-2.5625,6.2,-10.49,8.73,4.0625,10.5625,-31.5625,20.875,17.875,238,-0.471313,-0.053772,0.229309,-0.849915
303.625,102.625,-15.875,6.26,-9.88,8.47,4.0625,10.5625,-31.5625,17.6875,17,237.812,-0.472839,-0.05896,0.202942,-0.855408
308.5,102.625,-15.875,6.26,-9.88,7.79,8.5,3.1875,-31.1875,14.625,16.0625,237.812,-0.474854,-0.0637207,0.176453,-0.859802
304.312,108,-25.5625,6.6,-9.14,5.95,8.5,3.1875,-31.1875,11.5625,15.0625,237.812,-0.477173,-0.067627,0.150085,-0.86322
295.812,123.5,-40.25,4.27,-6.68,5.05,8.5,3.1875,-31.1875,8.6875,13.9375,238,-0.479919,-0.0705566,0.124146,-0.865601
283.5,126,-49.6875,3.67,-5.92,4.01,8.5,3.1875,-31.1875,5.9375,12.8125,238.25,-0.483093,-0.0726929,0.0991211,-0.866882
267.938,120.812,-56.5,3.67,-5.07,3.56,8.5,3.1875,-31.1875,3.375,11.6875,238.562,-0.486572,-0.0745239,0.0754395,-0.867188
251.375,120.812,-56.5,3.67,-5.07,3.56,11.5,-3.375,-30.6875,1,10.5625,238.938,-0.489868,-0.0762329,0.0532227,-0.866821
234.375,113.125,-56.8125,2.48,-3.59,1.95,11.5,-3.375,-30.6875,-1.1875,9.5625,239.25,-0.492798,-0.0776367,0.0323486,-0.866089
219.438,100.938,-51.375,1.79,-2.28,1.95,11.5,-3.375,-30.6875,-3.1875,8.5625,239.562,-0.495422,-0.0788574,0.0129395,-0.86499
203.312,91.4375,-46.9375,1.63,-1.67,1.65,11.5,-3.375,-30.6875,-5,7.625,239.875,-0.49762,-0.079834,-0.0045166,-0.863708
182.375,81.0625,-40.0625,1.83,-1.01,1.08,11.5,-3.375,-30.6875,-6.625,6.8125,240.125,-0.49939,-0.0807495,-0.0200806,-0.862366
162.562,81.0625,-40.0625,1.83,-1.01,1.08,11.5,-3.375,-27.5,-8.0625,6.125,240.312,-0.500488,-0.0818481,-0.0338745,-0.861206
146.5,68.75,-31,1.92,-0.77,0.82,13.6875,-8.25,-27.5,-9.375,5.5625,240.375,-0.500854,-0.083374,-0.0459595,-0.860291
132.625,46.0625,-12.0625,0.25,0.21,-0.38,13.6875,-8.25,-27.5,-10.5625,5.125,240.375,-0.50061,-0.0852051,-0.0570068,-0.859558
123.625,44.25,-8.5,0,0.42,-0.41,13.6875,-8.25,-27.5,-11.75,4.6875,240.375,-0.500122,-0.0869751,-0.067627,-0.858887
119.938,49.8125,-8.75,-0.11,0.48,-0.34,13.6875,-8.25,-27.5,-12.875,4.1875,240.375,-0.499573,-0.0883789,-0.0784302,-0.858154
119.25,49.8125,-8.75,-0.11,0.48,-0.34,14.875,-12.25,-24.1875,-14.0625,3.5625,240.375,-0.499023,-0.0890503,-0.0898438,-0.8573
120.688,60.0625,-10.375,-0.12,0.45,-0.43,14.875,-12.25,-24.1875,-15.25,2.875,240.375,-0.498413,-0.0888672,-0.101807,-0.856323
122.188,86.0625,-14.1875,-0.27,0.48,-0.41,14.875,-12.25,-24.1875,-16.4375,2.0625,240.375,-0.497742,-0.0877075,-0.114502,-0.855286
124.062,100.312,-15.75,-0.24,0.53,-0.32,14.875,-12.25,-24.1875,-17.625,1.0625,240.375,-0.496887,-0.0856323,-0.12793,-0.854065
126.188,111.75,-15.9375,-0.1,0.56,-0.21,14.875,-12.25,-24.1875,-18.875,0,240.312,-0.49585,-0.0827026,-0.141907,-0.852722
127.5,111.75,-15.9375,-0.1,0.56,-0.21,16.6875,-13.75,-23,-20.125,-1.0625,240.438,-0.495544,-0.0794678,-0.156128,-0.850708
128.25,119.438,-14.625,0.47,0.66,-0.26,16.6875,-13.75,-23,-21.375,-2.25,240.312,-0.493774,-0.0756836,-0.170776,-0.849304
129.062,132.188,-6.625,0.53,0.69,-0.33,16.6875,-13.75,-23,-22.6875,-3.5,240.188,-0.491455,-0.0715332,-0.185608,-0.8479
129.938,137.625,-1.4375,0.45,0.67,-0.29,16.6875,-13.75,-23,-23.9375,-4.6875,239.938,-0.488586,-0.0670776,-0.200684,-0.846497
130.938,141.5,3.3125,0.32,0.64,-0.28,16.6875,-13.75,-23,-25.3125,-5.9375,239.688,-0.485107,-0.062439,-0.215881,-0.845093
131.5,141.5,3.3125,0.32,0.64,-0.28,16.6875,-13.75,-18.875,-26.625,-7.1875,239.375,-0.481262,-0.0576172,-0.23114,-0.843567
131.938,144.75,7.125,0.23,0.63,-0.28,19.25,-17.5,-18.875,-28.0625,-8.375,239,-0.476929,-0.0527954,-0.24646,-0.842041
132.312,146.312,13.625,0.17,0.61,-0.28,19.25,-17.5,-18.875,-29.4375,-9.5625,238.625,-0.472229,-0.0479736,-0.261719,-0.840393
132.5,146.938,16.4375,-0.28,0.6,-0.4,19.25,-17.5,-18.875,-30.875,-10.6875,238.188,-0.467224,-0.0432129,-0.276855,-0.838562
132.562,146.688,17.0625,-0.66,0.88,-0.47,19.25,-17.5,-18.875,-32.3125,-11.8125,237.812,-0.462036,-0.0385742,-0.29187,-0.836548
132.75,144.938,17.0625,-0.66,0.88,-0.47,19.25,-17.5,-18.875,-33.8125,-12.875,237.812,-0.457336,-0.0343018,-0.306702,-0.834045
133.875,138.812,13,-0.34,0.79,-0.79,21.5,-19,-14.875,-35.375,-13.875,237.438,-0.452759,-0.0303955,-0.321533,-0.831055
138.25,134.625,4.125,-0.31,0.83,-0.98,21.5,-19,-14.875,-36.9375,-14.875,236.875,-0.448486,-0.0269165,-0.336609,-0.827576
144.125,129.688,-0.125,-0.08,0.79,-0.96,21.5,-19,-14.875,-38.625,-15.875,236.688,-0.444519,-0.0238647,-0.351868,-0.823425
151.062,126.062,-1.625,-0.16,0.76,-0.81,21.5,-19,-14.875,-40.375,-16.8125,236.5,-0.440491,-0.0209961,-0.367676,-0.818787
159.375,126.125,-1.625,-0.16,0.76,-0.81,21.5,-20.5,-9.5,-42.25,-17.75,236.375,-0.436462,-0.0184937,-0.383789,-0.813538
166.875,124.812,-3,-0.33,1.03,-0.82,22.1875,-20.5,-9.5,-44.1875,-18.625,236.312,-0.432617,-0.0164185,-0.400146,-0.807739
173.688,120.812,-7.0625,-0.01,0.91,-0.53,22.1875,-20.5,-9.5,-46.1875,-19.5,236.25,-0.428772,-0.0145874,-0.416687,-0.801453
179.938,119,-6.6875,-1.79,1.35,1.24,22.1875,-20.5,-9.5,-48.25,-20.25,236.25,-0.424866,-0.0132446,-0.433105,-0.7948
182.625,114.062,-12.0625,-5.75,2.71,6.97,22.1875,-20.5,-9.5,-50,-20.75,236.438,-0.423035,-0.0142822,-0.446533,-0.78833
165,66.1875,-12.0625,-5.75,2.71,6.97,22.1875,-20.5,-9.5,-50.9375,-20.6875,237.188,-0.426819,-0.0209351,-0.452637,-0.782593
117.125,-46.6875,-25.0625,-5.49,3.38,9.63,23.375,-21.25,-3.875,-50.9375,-20.0625,238.375,-0.435181,-0.0311279,-0.450989,-0.778625
55.5625,-148.375,-59.6875,0.84,0.76,2.75,23.375,-21.25,-3.875,-50.4375,-19.375,239.812,-0.446106,-0.0415039,-0.444946,-0.775452
10.3125,-186.562,-66.5,0.94,0.65,2.82,23.375,-21.25,-3.875,-49.8125,-18.875,241.125,-0.456604,-0.0495605,-0.438599,-0.772461
-5.125,-163.938,-64.625,0.79,0.56,2.94,23.375,-21.25,-3.875,-49.375,-18.6875,242.188,-0.464722,-0.053894,-0.43457,-0.769592
-3.25,-105.562,-64.625,0.79,0.56,2.94,23.375,-22,-1.75,-49.0625,-18.8125,243.375,-0.4729,-0.0559082,-0.432495,-0.765625
-2.75,-50.875,-64.3125,0.97,0.41,2.98,24.5,-22,-1.75,-48.875,-19.25,244,-0.477234,-0.053772,-0.432129,-0.763306
-6.5625,-6.4375,-57.9375,0.28,0.3,3.48,24.5,-22,-1.75,-48.625,-19.875,244.375,-0.47998,-0.0491943,-0.432556,-0.761658
-14.9375,29,-52.1875,-0.58,0.47,3.96,24.5,-22,-1.75,-48.375,-20.5625,244.688,-0.48175,-0.0431519,-0.432861,-0.760742
-28.3125,46.4375,-49.375,-2.3,0.73,4.44,24.5,-22,-1.75,-47.875,-21.1875,244.875,-0.483521,-0.0366211,-0.431702,-0.76062
-47.8125,43.125,-49.375,-2.3,0.73,4.44,24.5,-22,-3,-47.125,-21.6875,245.375,-0.488037,-0.0314941,-0.428101,-0.76001
-72.5,24.1875,-48.8125,-5.68,0.69,3.17,24.875,-19.375,-3,-46,-21.9375,245.688,-0.492004,-0.0263672,-0.421387,-0.761353
-98.5,-12.375,-48.125,-1.73,-0.05,1.24,24.875,-19.375,-3,-44.5625,-21.9375,246.125,-0.497192,-0.0230103,-0.411621,-0.763428
-119.188,-51.375,-35.9375,-0.89,-0.31,0.76,24.875,-19.375,-3,-43.0625,-21.6875,246.438,-0.502197,-0.020874,-0.400269,-0.766235
-130.375,-71.9375,-19.5625,0,0.04,0.41,24.875,-19.375,-3,-41.4375,-21.1875,246.688,-0.506714,-0.0203857,-0.387695,-0.769714
-134.688,-90.1875,-19.5625,0,0.04,0.41,24.875,-19.375,-3,-39.875,-21.1875,246.688,-0.512451,-0.0227051,-0.374023,-0.772644
-133.25,-115.562,-5.1875,0.29,0.26,0.55,26,-18.25,-4.6875,-38.3125,-20.375,247.062,-0.516663,-0.0264282,-0.359619,-0.77655
-127.5,-139.438,13.1875,0.47,0.4,2.8,26,-18.25,-4.6875,-36.875,-18,247.375,-0.520691,-0.0317993,-0.34491,-0.780334
-119.875,-155.062,17.0625,0.26,0.37,3.86,26,-18.25,-4.6875,-35.5625,-16.6875,247.562,-0.524414,-0.0377197,-0.330322,-0.783875
-113.688,-158.438,16.75,-0.04,0.22,4.62,26,-18.25,-4.6875,-34.3125,-15.375,247.625,-0.52771,-0.0430298,-0.316345,-0.78717
-111.062,-147.75,16.75,-0.04,0.22,4.62,26,-18.25,-4.6875,-33.0625,-14.3125,247.812,-0.531311,-0.0471191,-0.302979,-0.789734
-113.625,-128.312,13.25,-0.34,-0.07,4.88,24.875,-17.0625,-7.5,-31.75,-13.3125,247.875,-0.533936,-0.0493774,-0.289795,-0.792786
-121.312,-112,10.3125,0.82,-0.15,6.46,24.875,-17.0625,-7.5,-30.3125,-12.375,247.938,-0.536377,-0.0505981,-0.275696,-0.796082
-137.375,-106.25,18.3125,1.21,0.15,7.16,24.875,-17.0625,-7.5,-28.625,-11.375,247.812,-0.538269,-0.0508423,-0.259705,-0.800171
-163.562,-107.938,33.6875,1.17,0.69,8.07,24.875,-17.0625,-7.5,-26.6875,-10.3125,247.562,-0.539124,-0.0499268,-0.241333,-0.805359
-196.312,-107.938,33.6875,1.17,0.69,8.07,24.875,-17.0625,-7.5,-24.4375,-10.3125,247.562,-0.538696,-0.0475464,-0.220276,-0.811768
-234.25,-106.625,50.1875,-1.9,2,11.19,23.6875,-16.0625,-12.75,-21.75,-9.1875,247.125,-0.537903,-0.0443115,-0.195068,-0.818909
-281,-123.812,47.75,-6.17,2.09,10.8,23.6875,-16.0625,-12.75,-18.5,-6.125,246.188,-0.538391,-0.041687,-0.164062,-0.8255
-333.062,-169.875,10.375,-5.23,1.35,8.76,23.6875,-16.0625,-12.75,-14.8125,-4.125,246.25,-0.541626,-0.0402222,-0.128052,-0.829834
-371.812,-219.125,-37.3125,1.75,-1.49,8.51,23.6875,-16.0625,-12.75,-11.0625,-1.8125,246.75,-0.547913,-0.0400391,-0.0895996,-0.83075
-383.562,-254.125,-37.3125,1.75,-1.49,8.51,23.6875,-16.0625,-12.75,-7.4375,0.6875,247.688,-0.555786,-0.0413818,-0.0505371,-0.828735
-376.688,-276,-70.625,4.68,-2.82,10.38,21.1875,-13.75,-18.5,-3.9375,3.3125,248.625,-0.563354,-0.0436401,-0.0119629,-0.824951
-365.5,-282.562,-64.6875,7.82,-4.21,15.71,21.1875,-13.75,-18.5,-0.5625,5.9375,249.438,-0.569031,-0.0455933,0.0255127,-0.820618
-355.75,-272.625,-36.4375,7.46,-4.45,16.26,21.1875,-13.75,-18.5,2.75,8.375,250,-0.572021,-0.0465698,0.0617065,-0.816589
-347.875,-254.375,-6.125,6.73,-4.89,17.02,21.1875,-13.75,-18.5,6,10.6875,250.25,-0.572144,-0.0465698,0.0960083,-0.813171
-334.625,-234.688,-6.125,6.73,-4.89,17.02,21.1875,-13.75,-18.5,9.125,10.6875,250.25,-0.570312,-0.0463867,0.128418,-0.809998
-315.75,-220.938,14.875,5.93,-5.35,18.26,17.5,-6.1875,-26.6875,9.125,12.75,250.25,-0.567505,-0.0466309,0.159058,-0.806519
-295.875,-215.938,5.75,4.42,-4.95,23.96,17.5,-6.1875,-26.6875,14.9375,16.8125,250.312,-0.565063,-0.0478516,0.18811,-0.80188
-276.688,-214,-18.6875,5.6,-4.97,26.83,17.5,-6.1875,-26.6875,17.625,18.8125,250.625,-0.563782,-0.0500488,0.215942,-0.795593
-263.562,-213.5,-38.6875,7.34,-5.44,28.62,17.5,-6.1875,-26.6875,20.3125,20.875,251.125,-0.563416,-0.0523682,0.24353,-0.78772
-264.125,-212.062,-38.6875,7.34,-5.44,28.62,17.5,-6.1875,-26.6875,23.0625,22.8125,251.75,-0.563293,-0.0537109,0.270691,-0.778809
-270.062,-199.188,-45.4375,11.11,-7.65,28.09,12.25,0.875,-31.5,25.75,24.5,252.312,-0.562866,-0.0532227,0.295837,-0.769958
-262.875,-170.25,-21.4375,10.67,-9.27,27.19,12.25,0.875,-31.5,28.1875,25.75,252.75,-0.56189,-0.0512085,0.317139,-0.762268
-234.188,-132.125,-9.0625,9.68,-9.55,27.16,12.25,0.875,-31.5,30.1875,26.5625,253.062,-0.560669,-0.048584,0.333496,-0.756348
-186.875,-92.9375,-6.625,9.12,-9.22,28.84,12.25,0.875,-31.5,31.5625,27.0625,253.312,-0.560059,-0.0461426,0.344421,-0.752075
-130,-55.5,-6.625,9.12,-9.22,28.84,12.25,0.875,-31.5,31.5625,27.0625,253.312,-0.560181,-0.0441895,0.35022,-0.74939
-75.4375,-22.3125,-7.9375,8.88,-8.51,30.34,7.875,8.6875,-31.5,32.3125,27.25,253.5,-0.561096,-0.0421753,0.351746,-0.748047
-33.3125,10.75,-3.75,8.72,-7.08,31.03,7.875,8.6875,-31.5,32.4375,26.875,253.875,-0.562805,-0.0390625,0.349731,-0.747925
-4.25,48.5,6.875,7.09,-6.06,29.11,7.875,8.6875,-31.5,32.125,26.0625,254,-0.56488,-0.0340576,0.344482,-0.749023
16.875,88.25,20.125,5.65,-5.9,27.73,7.875,8.6875,-31.5,31.5625,25,254.062,-0.567017,-0.0275879,0.336548,-0.751343
35.875,120,20.125,5.65,-5.9,27.73,7.875,8.6875,-31.5,30.8125,23.6875,254.062,-0.568909,-0.0206909,0.326294,-0.754578
56.875,138.375,28.75,4.31,-5.91,26.72,6.75,11.5625,-30.1875,29.8125,22.375,254,-0.57074,-0.0147705,0.314392,-0.758423
80.5625,141.562,22.5,3.39,-6.36,24.56,6.75,11.5625,-30.1875,28.625,21.125,253.812,-0.572693,-0.0106812,0.301025,-0.76239
107,134.812,11.5625,4.12,-6.57,24.55,6.75,11.5625,-30.1875,27.125,20,253.75,-0.574951,-0.00878906,0.286194,-0.766418
135.562,126.125,1.5625,5.46,-6.91,24.5,6.75,11.5625,-30.1875,25.375,18.9375,253.688,-0.577576,-0.0088501,0.269714,-0.770447
162.688,120.938,1.5625,5.46,-6.91,24.5,6.75,11.5625,-30.1875,23.4375,17.875,253.625,-0.580261,-0.00976562,0.251709,-0.774536
183.75,123.75,-1.25,7.14,-7.28,23.52,9.75,9.75,-30.5625,21.3125,16.625,253.562,-0.582703,-0.0106812,0.231934,-0.778809
199.875,135.312,5.6875,7.7,-7.64,20.57,9.75,9.75,-30.5625,19.125,15.25,253.5,-0.584961,-0.0112915,0.210388,-0.783264
214.562,149.625,10.8125,7.73,-7.57,19.25,9.75,9.75,-30.5625,16.8125,13.75,253.312,-0.58667,-0.0118408,0.187317,-0.787781
229.062,159.75,17.125,6.42,-7.01,16.75,9.75,9.75,-30.5625,14.4375,12.25,253.062,-0.587646,-0.0128784,0.163391,-0.792358
240.375,158.938,17.125,6.42,-7.01,16.75,9.75,9.75,-30.5625,12,12.25,253.062,-0.588074,-0.0146484,0.139038,-0.796631
249.25,154.375,18.6875,5.85,-6.8,15.5,12.25,6.5,-30.1875,9.4375,10.75,252.812,-0.588562,-0.0170898,0.114258,-0.800171
256.062,151.25,3.25,5.82,-6.6,13.44,12.25,6.5,-30.1875,6.9375,7.875,252.5,-0.589172,-0.0200806,0.0894775,-0.802795
259.25,145.625,-0.9375,5.23,-6.05,11.94,12.25,6.5,-30.1875,4.4375,6.5625,252.438,-0.589661,-0.0235596,0.0653076,-0.804688
256.375,136.25,-2.5625,4.42,-5.5,11.28,12.25,6.5,-30.1875,2,5.375,252.375,-0.589844,-0.0274658,0.0421753,-0.805969
248.125,124.75,-2.5625,4.42,-5.5,11.28,12.25,6.5,-30.1875,-0.1875,4.3125,252.375,-0.589844,-0.0317383,0.020813,-0.806641
234.312,108.5,-3.875,3.4,-5.23,10.88,16.0625,-0.1875,-29,-2.25,3.5,252.312,-0.589722,-0.0365601,0.00195312,-0.806763
213.75,85.875,-12.375,3.17,-4.35,8.96,16.0625,-0.1875,-29,-4.0625,2.875,252.375,-0.589905,-0.041626,-0.0139771,-0.806274
187.812,62.8125,-17.3125,4.36,-3.74,7.58,16.0625,-0.1875,-29,-5.625,2.4375,252.438,-0.590454,-0.0465698,-0.0272217,-0.805298
160.438,45,-13.5,5.18,-3.31,6.06,16.0625,-0.1875,-29,-6.9375,2.0625,252.562,-0.590698,-0.0509033,-0.038147,-0.804382
135,33.875,-13.5,5.18,-3.31,6.06,16.0625,-0.1875,-29,-6.9375,2.0625,252.562,-0.589905,-0.0549927,-0.0471191,-0.80426
113.938,24.1875,3.1875,3.72,-2.39,3.01,18.25,-5.75,-25.75,-8.0625,1.875,252.5,-0.587769,-0.0592041,-0.053833,-0.805054
94.625,8.875,39.25,0.86,-0.91,1.49,18.25,-5.75,-25.75,-9.6875,2,251.875,-0.584717,-0.0641479,-0.0584106,-0.80658
78.6875,-12.5625,44.1875,0.41,-0.56,1.32,18.25,-5.75,-25.75,-10.3125,2.375,251.438,-0.581482,-0.0695801,-0.0610352,-0.808228
64.375,-30.5625,43.3125,0.48,-0.08,0.6,18.25,-5.75,-25.75,-10.8125,2.875,251.062,-0.578491,-0.0754395,-0.0618286,-0.809814
49.0625,-46.875,43.3125,0.48,-0.08,0.6,18.25,-5.75,-25.75,-11.125,3.5,251.062,-0.575623,-0.081543,-0.0611572,-0.81134
37.0625,-59.3125,43.125,0.51,0.12,0.28,18.5625,-8,-24.0625,-11.375,4.25,250.688,-0.572693,-0.0877075,-0.0597534,-0.812866
30.375,-65.25,45.1875,0.25,0.41,-0.09,18.5625,-8,-24.0625,-11.625,4.9375,249.938,-0.569702,-0.0938721,-0.0581055,-0.814392
28,-66.6875,45.125,0.25,0.4,-0.04,18.5625,-8,-24.0625,-11.875,5.6875,249.562,-0.566711,-0.100037,-0.0564575,-0.815918
27.5625,-66.625,45.125,0.27,0.4,-0.1,18.5625,-8,-24.0625,-12.125,6.375,249.125,-0.56366,-0.10614,-0.0548096,-0.817322
27.5625,-66.3125,45.125,0.27,0.4,-0.1,18.5625,-8,-24.0625,-12.125,6.375,249.125,-0.56366,-0.10614,-0.0531616,-0.818726
27.75,-66.375,45,0.25,0.42,-0.1,17.0625,-9.1875,-26.0625,-12.375,7.125,248.75,-0.560608,-0.112244,-0.0515137,-0.820068
28,-66.1875,44.5,0.25,0.42,-0.1,17.0625,-9.1875,-26.0625,-12.8125,8.5625,248,-0.554382,-0.124451,-0.0499268,-0.82135
28.3125,-66.4375,44.375,0.23,0.4,-0.08,17.0625,-9.1875,-26.0625,-13.0625,9.25,247.625,-0.55127,-0.130554,-0.0483398,-0.822632
28.4375,-66.0625,44.125,0.24,0.42,-0.06,17.0625,-9.1875,-26.0625,-13.3125,10,247.25,-0.548157,-0.136658,-0.0467529,-0.823792
28.625,-66.125,44.125,0.24,0.42,-0.06,17.0625,-9.1875,-26.0625,-13.3125,10,247.25,-0.545044,-0.142761,-0.0452271,-0.824951
29,-66,43.9375,0.23,0.41,-0.04,15,-10.6875,-26.5,-13.5,10.6875,246.875,-0.54187,-0.148865,-0.0437012,-0.825989
29.25,-65.875,43.5625,0.23,0.4,-0.07,15,-10.6875,-26.5,-14,12.125,246.125,-0.538696,-0.155029,-0.0421753,-0.827026
29.5,-66.1875,43.3125,0.26,0.4,-0.1,15,-10.6875,-26.5,-14.1875,12.875,245.75,-0.535522,-0.161072,-0.0406494,-0.828003
29.5,-65.875,43.0625,0.23,0.41,-0.05,15,-10.6875,-26.5,-14.4375,13.5625,245.375,-0.532288,-0.167236,-0.0391846,-0.828979
30,-65.875,43.0625,0.23,0.41,-0.05,15,-10.6875,-26.5,-14.6875,13.5625,245.375,-0.529053,-0.17334,-0.0377197,-0.829834
30.25,-65.8125,42.8125,0.25,0.42,-0.06,13.0625,-12.1875,-27.75,-14.9375,14.3125,245,-0.525818,-0.179443,-0.0363159,-0.830688
30.5625,-65.9375,42.4375,0.26,0.4,-0.06,13.0625,-12.1875,-27.75,-15.125,15.75,244.25,-0.522583,-0.185547,-0.0349121,-0.831421
30.9375,-65.9375,42.3125,0.25,0.4,-0.04,13.0625,-12.1875,-27.75,-15.375,16.5,243.875,-0.519287,-0.191711,-0.0335083,-0.832153
31.0625,-66.0625,42,0.24,0.41,-0.07,13.0625,-12.1875,-27.75,-15.625,17.1875,243.562,-0.515991,-0.197815,-0.0321655,-0.832825
31.375,-66,42,0.24,0.41,-0.07,13.0625,-12.1875,-27.75,-15.625,17.1875,243.562,-0.515991,-0.197815,-0.0308228,-0.833435
31.6875,-66,41.8125,0.24,0.41,-0.05,12,-13.1875,-28.875,-15.875,17.9375,243.188,-0.512695,-0.203979,-0.02948,-0.833984
31.875,-66.0625,41.3125,0.24,0.41,-0.09,12,-13.1875,-28.875,-16.3125,19.375,242.438,-0.506042,-0.216248,-0.0281372,-0.834473
32.3125,-66.0625,41.25,0.25,0.39,-0.04,12,-13.1875,-28.875,-16.5625,20.125,242.062,-0.502686,-0.222412,-0.0269165,-0.834961
32.6875,-66.125,40.8125,0.26,0.43,-0.06,12,-13.1875,-28.875,-16.8125,20.8125,241.688,-0.499329,-0.228516,-0.0256348,-0.835327
33,-65.875,40.8125,0.26,0.43,-0.06,12,-13.1875,-28.875,-16.8125,20.8125,241.688,-0.499329,-0.23468,-0.0244141,-0.835693
33.3125,-66,40.5625,0.26,0.42,-0.05,9.375,-14.6875,-30.1875,-17.0625,21.5625,241.312,-0.495911,-0.240845,-0.0232544,-0.835999
33.4375,-65.875,40.125,0.25,0.43,-0.05,9.375,-14.6875,-30.1875,-17.5625,23,240.625,-0.489136,-0.246948,-0.0220947,-0.836243
33.8125,-65.8125,39.6875,0.24,0.42,-0.05,9.375,-14.6875,-30.1875,-17.8125,23.75,240.25,-0.485718,-0.253052,-0.0209351,-0.836426
34.1875,-65.6875,39.4375,0.25,0.42,-0.06,9.375,-14.6875,-30.1875,-18.125,24.4375,239.875,-0.4823,-0.259216,-0.0198364,-0.836548
34.5,-65.625,39.4375,0.25,0.42,-0.06,9.375,-14.6875,-30.1875,-18.375,24.4375,239.875,-0.478821,-0.26532,-0.0187988,-0.83667
34.875,-65.625,39.4375,0.25,0.43,-0.04,6.75,-15.75,-28.75,-18.375,25.1875,239.562,-0.475342,-0.271423,-0.0177612,-0.83667
35.3125,-65.5,38.8125,0.24,0.41,-0.04,6.75,-15.75,-28.75,-18.875,26.625,238.812,-0.471863,-0.277527,-0.0167236,-0.83667
35.6875,-65.4375,38.6875,0.26,0.41,-0.04,6.75,-15.75,-28.75,-19.1875,27.3125,238.438,-0.468384,-0.28363,-0.0158081,-0.836609
35.9375,-65.375,38.375,0.24,0.42,-0.03,6.75,-15.75,-28.75,-19.4375,28.0625,238.125,-0.464905,-0.289734,-0.0148315,-0.836487
36.4375,-65.5,38.375,0.24,0.42,-0.03,6.75,-15.75,-28.75,-19.4375,28.0625,238.125,-0.464905,-0.289734,-0.0148315,-0.836304
36.6875,-65.375,38.1875,0.27,0.44,-0.03,5.0625,-16.1875,-28.875,-19.75,28.8125,237.75,-0.461365,-0.295837,-0.013916,-0.836121
37.125,-65.375,37.8125,0.25,0.43,-0.03,5.0625,-16.1875,-28.875,-20.3125,30.25,237,-0.454224,-0.308044,-0.012207,-0.835815
37.4375,-65.25,37.8125,0.25,0.43,-0.02,5.0625,-16.1875,-28.875,-20.625,30.9375,236.625,-0.450684,-0.314087,-0.0114136,-0.83551
37.75,-64.875,37.4375,0.27,0.43,-0.03,5.0625,-16.1875,-28.875,-20.875,31.625,236.312,-0.447083,-0.32019,-0.0106201,-0.835144
38,-64.8125,37.125,0.27,0.43,-0.03,5.0625,-16.1875,-28.875,-20.875,31.625,236.312,-0.447083,-0.32019,-0.0098877,-0.834717
38.125,-65,37.0625,0.26,0.42,-0.03,3.5625,-18.375,-27.6875,-21.1875,32.375,235.938,-0.443481,-0.326233,-0.00915527,-0.83429
38.5,-64.75,36.6875,0.26,0.41,-0.03,3.5625,-18.375,-27.6875,-21.8125,33.8125,235.188,-0.436218,-0.338318,-0.00848389,-0.833801
38.875,-64.875,36.6875,-0.68,0.11,-1.15,3.5625,-18.375,-27.6875,-22.125,34.5,234.875,-0.432617,-0.344299,-0.0078125,-0.833191
39.1875,-64.625,36.0625,-0.66,0.16,-2.72,3.5625,-18.375,-27.6875,-22.5625,35.125,234.5,-0.429199,-0.35022,-0.00830078,-0.83252
49.125,-58.25,28.3125,-0.66,0.16,-2.72,3.5625,-18.375,-27.6875,-22.5625,35.125,234.5,-0.429199,-0.356018,-0.0163574,-0.831482
121.875,-20.4375,-7.25,-1.91,0.4,-2.93,1.6875,-18.375,-27.25,-23.875,35.3125,234.25,-0.426147,-0.361816,-0.0244141,-0.830383
121.875,-20.4375,-7.25,-2.4,0.79,-3.46,1.6875,-18.375,-27.25,-27,35.375,233.812,-0.420715,-0.36853,-0.036377,-0.828186
161.312,-14.5625,-38.6875,-1.56,1.18,-3.11,1.6875,-18.375,-27.25,-29.4375,35.1875,233.938,-0.419617,-0.376343,-0.0524902,-0.824341
203.75,-12.8125,-74.5625,-0.88,1.4,-3.19,1.6875,-18.375,-27.25,-32.5,34.6875,234.188,-0.41925,-0.385132,-0.0727539,-0.818909
246.062,-8.6875,-108.188,-0.88,1.4,-3.19,1.6875,-18.375,-27.25,-32.5,34.6875,234.188,-0.416748,-0.398682,-0.100159,-0.810791
351.812,-30.4375,-129.562,5.64,1.94,-6.97,1.6875,-20.1875,-25.5625,-36.75,34.25,234.375,-0.413818,-0.411865,-0.127441,-0.801819
351.812,-30.4375,-129.562,9.08,2.35,31.2,1.6875,-20.1875,-25.5625,-44.6875,34.3125,233.75,-0.402893,-0.42981,-0.147522,-0.794495
343,-91.5625,-3.125,4.04,3.28,26.06,1.6875,-20.1875,-25.5625,-44.75,36.1875,232.312,-0.39093,-0.440308,-0.140625,-0.795959
43.4375,-103.25,172.812,1.66,4.33,23.84,1.6875,-20.1875,-25.5625,-43.3125,38.1875,231.438,-0.384888,-0.446411,-0.122681,-0.798462
-113.625,-117.875,172.938,1.66,4.33,23.84,1.6875,-20.1875,-25.5625,-43.3125,38.1875,231.438,-0.384888,-0.445984,-0.0991821,-0.802368
-225.312,-80.9375,149.438,9.27,2.61,11.99,2.6875,-26.1875,-17.5,-40.6875,39.75,231.125,-0.384033,-0.445984,-0.0991821,-0.802368
-265.312,-51.125,151.188,10.73,0.98,9.14,2.6875,-26.1875,-17.5,-33.8125,42.25,230.375,-0.382446,-0.436462,-0.0480957,-0.812988
-267.312,-33.0625,170.812,10.59,-0.6,9.28,2.6875,-26.1875,-17.5,-29.9375,43.25,229.688,-0.379822,-0.428833,-0.0230713,-0.819336
-265.062,-5.5625,179.062,10.84,-4.09,8.3,2.6875,-26.1875,-17.5,-25.875,43.875,228.938,-0.376282,-0.419556,0.000488281,-0.826111
-254.875,19.5625,182.062,10.84,-4.09,8.3,2.6875,-26.1875,-17.5,-25.875,43.875,228.938,-0.376282,-0.419556,0.000488281,-0.826111
-231.938,47.6875,185.75,11.59,-4.81,8.37,-2.0625,-26.5625,-20,-21.875,44.1875,228,-0.371399,-0.408691,0.0217285,-0.833374
-208.312,103.688,190.188,12.19,-3.69,7.43,-2.0625,-26.5625,-20,-13.875,42.6875,225.562,-0.358643,-0.374878,0.0539551,-0.85321
-189.875,180.562,189.25,10.21,-1.55,12.11,-2.0625,-26.5625,-20,-10.1875,40.875,224.312,-0.352295,-0.351685,0.0655518,-0.864868
-180.188,233.062,180,11.74,0.45,18.12,-2.0625,-26.5625,-20,-6.75,38.6875,223.062,-0.345947,-0.326904,0.0765381,-0.87616
-180.625,250.125,176.938,11.74,0.45,18.12,-2.0625,-26.5625,-20,-6.75,38.6875,223.062,-0.345947,-0.326904,0.0765381,-0.886536
-206.25,262.438,168.438,8.13,2.43,20.22,-4.25,-20.6875,-25.6875,-3.3125,36.3125,222,-0.340698,-0.300171,0.0886841,-0.893372
-243.312,210.75,129.188,2.62,0.74,15.95,-4.25,-20.6875,-25.6875,2.875,33.0625,221.562,-0.340271,-0.258423,0.121765,-0.895874
-260.75,128.5,72.5,3.83,-0.85,15.37,-4.25,-20.6875,-25.6875,5.5625,32.1875,222.062,-0.344604,-0.244019,0.139709,-0.89563
-262.25,86.25,28.375,5.19,-2.33,14.76,-4.25,-20.6875,-25.6875,7.9375,31.625,222.875,-0.350891,-0.231873,0.157227,-0.893555
-257.25,61.625,-3.875,5.19,-2.33,14.76,-4.25,-20.6875,-25.6875,7.9375,31.625,222.875,-0.350891,-0.231873,0.17395,-0.890564
-242.438,43.6875,-14.5,9.82,-3.14,14.41,-2.0625,-15.1875,-30.1875,10.1875,31.25,223.688,-0.357239,-0.221497,0.189819,-0.887573
-223.125,27.625,-2.5,11.48,-3.27,15.9,-2.0625,-15.1875,-30.1875,14.375,30.75,224.688,-0.364197,-0.204895,0.204956,-0.885071
-204.062,16.0625,21.0625,10.89,-3.11,16.45,-2.0625,-15.1875,-30.1875,16.375,30.5625,224.812,-0.364624,-0.197388,0.219238,-0.883179
-187.562,13.25,40.5,9.83,-2.99,15.5,-2.0625,-15.1875,-30.1875,18.25,30.1875,224.812,-0.364075,-0.189636,0.231995,-0.881836
-169.125,21.4375,49.875,9.83,-2.99,15.5,-2.0625,-15.1875,-30.1875,18.25,30.1875,224.812,-0.364075,-0.189636,0.242798,-0.880981
-146.688,31.625,51.625,9.54,-2.66,15.47,-1,-9.1875,-31.375,19.875,29.75,224.75,-0.363159,-0.181763,0.251892,-0.880432
-126.375,33.5,50.4375,9.42,-1.23,17.05,-1,-9.1875,-31.375,22.625,28.875,224.562,-0.360657,-0.167847,0.260254,-0.879761
-114.125,26.5625,48.1875,9.15,0.35,18.37,-1,-9.1875,-31.375,23.8125,28.5,224.438,-0.359497,-0.162109,0.268494,-0.878845
-110.688,19.0625,42.1875,9.65,0.62,18.86,-1,-9.1875,-31.375,25.0625,28.25,224.5,-0.359009,-0.156799,0.276917,-0.877441
-113.562,15.375,31.8125,9.65,0.62,18.86,-1,-9.1875,-31.375,25.0625,28.25,224.5,-0.359009,-0.156799,0.286133,-0.874329
-119.812,12.75,24,11.8,-1.03,18.02,0.5,-3.875,-33.375,27.5625,27.875,225.062,-0.362,-0.145569,0.295288,-0.87207
-124.562,10.75,22.3125,12.03,-1.55,17.63,0.5,-3.875,-33.375,28.8125,27.625,225.125,-0.361938,-0.140442,0.304199,-0.869873
-121.688,10.75,24.3125,11.98,-1.92,17.87,0.5,-3.875,-33.375,30,27.4375,225.188,-0.361633,-0.135498,0.312317,-0.86792
-111.188,11.4375,25.9375,11.72,-2.12,18.48,0.5,-3.875,-33.375,31,27.1875,225.25,-0.361511,-0.130859,0.319397,-0.86615
-98.8125,14,22.25,11.72,-2.12,18.48,0.5,-3.875,-33.375,31,27.1875,225.25,-0.361511,-0.130859,0.3255,-0.863525
-86.3125,21.3125,12.5625,12.24,-2.59,18.74,1.1875,-1.25,-33.375,31.875,26.9375,225.688,-0.364197,-0.125549,0.329834,-0.861938
-72.0625,30.3125,2.9375,12.37,-3.2,19.03,1.1875,-1.25,-33.375,32.9375,26.4375,226.25,-0.367493,-0.116821,0.332825,-0.860535
-56.875,35.6875,-5.0625,12.45,-3.82,19.05,1.1875,-1.25,-33.375,33.1875,26.1875,226.562,-0.369934,-0.113098,0.334412,-0.859375
-40.4375,38.875,-12.6875,12.31,-4.42,18.19,1.1875,-1.25,-33.375,33.1875,25.9375,226.875,-0.372681,-0.110046,0.334473,-0.858582
-20.375,40.6875,-19.625,12.31,-4.42,18.19,1.1875,-1.25,-33.375,33.1875,25.9375,226.875,-0.372681,-0.110046,0.332764,-0.858032
3.8125,37.6875,-26.8125,11.4,-4.7,18.1,0.5,1.25,-33,32.4375,25.75,227.625,-0.37915,-0.107788,0.329346,-0.857971
28.8125,30.75,-35.9375,11.01,-4.84,17.76,0.5,1.25,-33,31.6875,25.8125,228.062,-0.382935,-0.109192,0.324219,-0.858093
54,24,-49.875,11.75,-4.97,17.28,0.5,1.25,-33,30.5625,25.9375,228.562,-0.387573,-0.111938,0.316895,-0.858398
81.9375,22.75,-65.8125,12.37,-4.93,17.68,0.5,1.25,-33,29.125,26.0625,229.125,-0.392761,-0.115723,0.307373,-0.859009
109.438,25.5,-76.75,12.37,-4.93,17.68,0.5,1.25,-33,29.125,26.0625,229.125,-0.392761,-0.115723,0.307373,-0.859863
132.75,32.25,-80.875,12.64,-4.79,18.03,1.5625,2.75,-33.75,27.4375,26.1875,229.688,-0.398376,-0.119812,0.295898,-0.861267
151,43.375,-80.5,11.71,-3.92,18.27,1.5625,2.75,-33.75,23.5,26,230.688,-0.408997,-0.127136,0.267944,-0.862976
164.438,55.5625,-78.25,10.85,-3.6,18.27,1.5625,2.75,-33.75,21.375,25.6875,231.125,-0.414062,-0.130127,0.252258,-0.864868
173.125,64.1875,-75.625,9.68,-3.39,18.19,1.5625,2.75,-33.75,19.1875,25.375,231.562,-0.419006,-0.133118,0.236084,-0.866577
177.188,66.1875,-75.9375,9.68,-3.39,18.19,1.5625,2.75,-33.75,19.1875,25.375,231.562,-0.419006,-0.133118,0.236084,-0.867737
179.25,63.3125,-83.8125,7.19,-3.28,17.69,2,0.0625,-33,17,25,232.062,-0.424316,-0.136475,0.219788,-0.868042
180.562,54.6875,-99.9375,6.24,-3.44,17.7,2,0.0625,-33,12.4375,24.6875,233.562,-0.437805,-0.146423,0.187195,-0.867065
180.938,40.0625,-120.562,6.52,-3.59,17.77,2,0.0625,-33,10.0625,24.6875,234.562,-0.446228,-0.153503,0.171509,-0.864807
178.188,23.375,-141.25,8.15,-3.84,17.34,2,0.0625,-33,7.6875,24.8125,235.75,-0.45575,-0.161499,0.156311,-0.861267
173.312,11.625,-159.25,8.15,-3.84,17.34,2,0.0625,-33,7.6875,24.8125,235.75,-0.45575,-0.161499,0.156311,-0.856873
166.125,7.3125,-169.875,9.29,-4.1,17.26,3.5,-5.375,-33,5.3125,24.9375,237,-0.46582,-0.169556,0.141602,-0.852051
154.688,9,-169,11.29,-5.28,16.99,3.5,-5.375,-33,1,24.9375,239.562,-0.485107,-0.18335,0.114502,-0.847351
141.5,13.6875,-156.75,10.78,-6.73,14.58,3.5,-5.375,-33,-0.8125,24.6875,240.625,-0.493103,-0.188416,0.10199,-0.84314
131.5,22.8125,-138.562,9.82,-7.09,12.88,3.5,-5.375,-33,-2.625,24.3125,241.5,-0.500061,-0.192322,0.0893555,-0.8396
129.125,34.75,-122.875,9.82,-7.09,12.88,3.5,-5.375,-33,-2.625,24.3125,241.5,-0.500061,-0.192322,0.0893555,-0.836548
134.875,45.5,-111.5,7.45,-6.52,7.41,5.6875,-8.375,-30.0625,-6.25,23.25,242.938,-0.511047,-0.198914,0.0617065,-0.833923
148.25,51.8125,-100.188,5.3,-5.81,6.18,5.6875,-8.375,-30.0625,-8.1875,22.6875,243.5,-0.514709,-0.203125,0.0465088,-0.831665
165,47.8125,-88.8125,3.89,-4.9,5.4,5.6875,-8.375,-30.0625,-10.1875,22.125,243.938,-0.5177,-0.208374,0.0308838,-0.829224
177.75,39.125,-85.125,2.7,-4.13,4.72,5.6875,-8.375,-30.0625,-12.3125,21.8125,244.438,-0.52063,-0.215149,0.0158081,-0.82605
181.125,19.1875,-87.9375,2.7,-4.13,4.72,5.6875,-8.375,-30.0625,-12.3125,21.8125,244.438,-0.52063,-0.215149,0.0158081,-0.82605
175.062,-9.25,-94.5,1.09,-2.59,3.31,7.0625,-11.6875,-29.6875,-14.3125,21.6875,245,-0.523987,-0.223633,0.0022583,-0.821838
165.125,-38.25,-103,1.27,-0.73,1.93,7.0625,-11.6875,-29.6875,-18.375,22,246.625,-0.532532,-0.244385,-0.0200195,-0.81012
158,-56.6875,-112.188,1.34,-0.19,0.79,7.0625,-11.6875,-29.6875,-20.375,22.125,247.5,-0.537109,-0.255249,-0.0302124,-0.803406
154.25,-60.1875,-113.188,1.13,0.25,0.5,7.0625,-11.6875,-29.6875,-22.3125,22.3125,248.375,-0.541382,-0.265808,-0.0404053,-0.796631
153.375,-57.8125,-110.375,1.13,0.25,0.5,7.0625,-11.6875,-29.6875,-22.3125,22.3125,248.375,-0.541382,-0.265808,-0.0404053,-0.796631
147.5,-59.75,-105.562,0.41,0.88,-0.12,8.5625,-14.25,-28.75,-26.125,22.5625,250.062,-0.549194,-0.286499,-0.0587158,-0.782898
141.188,-64.25,-102.312,0.26,1.02,-0.24,8.5625,-14.25,-28.75,-27.9375,22.6875,250.938,-0.552795,-0.296753,-0.0673828,-0.775757
139.688,-65.375,-102.312,0.32,0.96,-0.11,8.5625,-14.25,-28.75,-29.75,22.75,251.812,-0.556396,-0.306946,-0.0760498,-0.768433
139.125,-65.4375,-103.188,0.29,0.96,-0.09,8.5625,-14.25,-28.75,-31.625,22.75,252.688,-0.559875,-0.316956,-0.0845947,-0.760864
138,-65.25,-103.875,0.29,0.96,-0.09,8.5625,-14.25,-28.75,-31.625,22.75,252.688,-0.559875,-0.316956,-0.0845947,-0.760864
136.875,-64.875,-104.562,0.3,0.97,-0.19,8.25,-16.5,-26.75,-33.4375,22.75,253.625,-0.56366,-0.326843,-0.0930176,-0.752869
136.062,-64.9375,-105.375,0.3,0.97,-0.15,8.25,-16.5,-26.75,-37.0625,22.625,255.438,-0.570374,-0.346191,-0.109924,-0.736694
135.438,-64.5625,-106.188,0.28,0.97,-0.14,8.25,-16.5,-26.75,-38.875,22.4375,256.438,-0.573608,-0.355652,-0.118286,-0.728333
134.625,-64.5625,-106.875,0.27,0.99,-0.16,8.25,-16.5,-26.75,-40.6875,22.25,257.375,-0.576782,-0.36499,-0.126587,-0.719788
133.562,-64.5,-107.625,0.27,0.99,-0.16,8.25,-16.5,-26.75,-40.6875,22.25,257.375,-0.576782,-0.36499,-0.126587,-0.719788
133.125,-64.4375,-108.5,0.28,0.98,-0.16,8,-18.6875,-24.375,-42.4375,22.0625,258.375,-0.580078,-0.374207,-0.134766,-0.710876
132.375,-64.1875,-109.312,0.28,0.98,-0.12,8,-18.6875,-24.375,-45.9375,21.4375,260.438,-0.58606,-0.392151,-0.151245,-0.692688
131.688,-64.125,-110.062,0.28,1.01,-0.17,8,-18.6875,-24.375,-47.6875,21.0625,261.5,-0.588989,-0.400879,-0.159363,-0.68335
130.75,-63.9375,-110.812,0.29,0.98,-0.13,8,-18.6875,-24.375,-49.375,20.6875,262.562,-0.591797,-0.409485,-0.16748,-0.673828
130.188,-63.6875,-111.375,0.29,0.98,-0.13,8,-18.6875,-24.375,-49.375,20.6875,262.562,-0.591797,-0.409485,-0.16748,-0.673828
129.688,-63.75,-112.5,0.29,0.99,-0.13,8.375,-21.375,-22.25,-51.0625,20.25,263.625,-0.594543,-0.417969,-0.175537,-0.664062
128.812,-63.75,-112.938,0.28,0.97,-0.15,8.375,-21.375,-22.25,-54.375,19.25,265.875,-0.599792,-0.434448,-0.191467,-0.644043
128.188,-63.6875,-113.75,0.28,0.99,-0.15,8.375,-21.375,-22.25,-56,18.6875,267.062,-0.602295,-0.442505,-0.199402,-0.633789
127.75,-63.5625,-114.625,0.28,0.97,-0.14,8.375,-21.375,-22.25,-57.625,18.0625,268.25,-0.604736,-0.450378,-0.207214,-0.623352
126.875,-63.625,-115.25,0.28,0.97,-0.14,8.375,-21.375,-22.25,-57.625,18.0625,268.25,-0.604736,-0.450378,-0.207214,-0.623352
126.375,-63.4375,-116.062,0.27,0.99,-0.14,9.875,-23.1875,-19.875,-59.1875,17.4375,269.438,-0.607056,-0.458069,-0.215027,-0.612732
125.438,-63.3125,-116.812,0.28,0.98,-0.16,9.875,-23.1875,-19.875,-62.3125,16.0625,271.938,-0.611511,-0.472961,-0.230469,-0.590942
124.812,-63.3125,-117.5,0.3,1,-0.13,9.875,-23.1875,-19.875,-63.8125,15.3125,273.188,-0.613586,-0.480225,-0.238098,-0.579834
124.188,-63.1875,-118.188,0.3,0.99,-0.12,9.875,-23.1875,-19.875,-65.25,14.5625,274.5,-0.615601,-0.487244,-0.245667,-0.568542
123.438,-63.0625,-118.938,0.3,0.99,-0.12,9.875,-23.1875,-19.875,-65.25,14.5625,274.5,-0.615601,-0.487244,-0.245667,-0.568542
122.688,-62.75,-119.688,0.28,0.99,-0.16,10.5625,-24.6875,-19.5,-66.6875,13.75,275.875,-0.617615,-0.494141,-0.253113,-0.557068
122,-62.8125,-120.438,0.28,1,-0.16,10.5625,-24.6875,-19.5,-69.5,12,278.625,-0.621216,-0.507324,-0.267944,-0.533752
121.25,-62.5,-121.062,0.29,0.99,-0.11,10.5625,-24.6875,-19.5,-70.875,11.125,280.062,-0.622925,-0.513672,-0.27533,-0.521912
120.562,-62.4375,-121.938,0.28,1,-0.14,10.5625,-24.6875,-19.5,-72.25,10.1875,281.5,-0.624512,-0.519775,-0.282593,-0.509888
119.875,-62.375,-122.625,0.28,1,-0.14,10.5625,-24.6875,-19.5,-72.25,10.1875,281.5,-0.624512,-0.519775,-0.282593,-0.509888
119.062,-62.0625,-123.375,0.29,1,-0.12,10.5625,-25.75,-17,-73.5625,9.1875,283,-0.626038,-0.525757,-0.289795,-0.497681
118.188,-61.9375,-124.062,0.27,0.99,-0.13,10.5625,-25.75,-17,-76.0625,7.1875,286.062,-0.628784,-0.537109,-0.304077,-0.473022
117.625,-62,-124.625,0.28,1.01,-0.12,10.5625,-25.75,-17,-77.3125,6.125,287.625,-0.630005,-0.542542,-0.311096,-0.460449
117,-62.0625,-125.438,0.26,1,-0.12,10.5625,-25.75,-17,-78.5,5.0625,289.25,-0.631104,-0.547729,-0.318054,-0.447815
116.188,-62,-126.25,0.26,1,-0.12,10.5625,-25.75,-17,-78.5,5.0625,289.25,-0.631104,-0.547729,-0.318054,-0.447815
115.562,-61.8125,-126.938,0.28,1,-0.14,13.1875,-25.25,-15,-79.6875,4,290.938,-0.632202,-0.552795,-0.32489,-0.434937
114.75,-61.5625,-127.5,0.29,1.01,-0.15,13.1875,-25.25,-15,-82,1.75,294.312,-0.633972,-0.562256,-0.338501,-0.409058
114,-61.375,-128,0.27,1,-0.13,13.1875,-25.25,-15,-83.125,0.5625,296.062,-0.634766,-0.566711,-0.345215,-0.395935
113.375,-61.25,-128.875,0.29,1.01,-0.11,13.1875,-25.25,-15,-84.1875,-0.5625,297.812,-0.635376,-0.570984,-0.351868,-0.382751
112.812,-61.0625,-129.5,0.29,1.01,-0.11,13.1875,-25.25,-15,-84.1875,-0.5625,297.812,-0.635376,-0.570984,-0.351868,-0.382751
112,-60.9375,-129.875,0.36,1.1,-0.02,15.375,-24.1875,-14.1875,-85.25,-1.75,299.75,-0.636169,-0.575256,-0.358093,-0.36908
110.938,-60.5625,-130.562,1.86,2.45,2.2,15.375,-24.1875,-14.1875,-87.25,-4.125,303.312,-0.637085,-0.582031,-0.37085,-0.343323
98.8125,-51.6875,-125.688,7.21,9.54,11.27,15.375,-24.1875,-14.1875,-87.75,-5.1875,304.438,-0.637512,-0.581787,-0.377441,-0.335571
56.0625,-5.25,-106.375,7.21,6.45,0.85,15.375,-24.1875,-14.1875,-88.25,-6.25,305.062,-0.636902,-0.579163,-0.38678,-0.33075
42.9375,50.875,-110.125,2.44,6.45,0.85,15.375,-24.1875,-14.1875,-88.25,-6.25,305.062,-0.636902,-0.579163,-0.38678,-0.33075
56.5,64.625,-117.75,3.37,5.24,2.9,16.5625,-24.1875,-13,-88.875,-7.4375,306,-0.636108,-0.577515,-0.396057,-0.324036
62.375,28.125,-86,9.91,4.31,7.26,16.5625,-24.1875,-13,-89.9375,-8.3125,306.625,-0.631958,-0.579041,-0.405701,-0.317444
45.375,12.8125,-6.125,21.2,-1.49,2.15,16.5625,-24.1875,-13,-90.25,-7.25,305.188,-0.626404,-0.582764,-0.403381,-0.324524
22.9375,44.1875,107.5,21.2,-0.29,-1.63,16.5625,-24.1875,-13,-90.5,-4.875,301.75,-0.614807,-0.588684,-0.397705,-0.342468
16.5625,114,245.438,13.67,-0.29,-1.63,16.5625,-24.1875,-13,-90.5,-4.875,301.75,-0.614807,-0.588684,-0.397705,-0.342468
32.9375,187.562,338.25,9.56,1.3,-1.3,19.5625,-22.6875,-9.6875,-90.9375,-1.5625,296.625,-0.596741,-0.596069,-0.391357,-0.368103
48.75,252.75,385.438,8.39,2.87,0.22,19.5625,-22.6875,-9.6875,-91.6875,6.25,283.312,-0.546265,-0.608154,-0.380981,-0.431946
52.9375,306.438,416.312,9.28,7.59,0.69,19.5625,-22.6875,-9.6875,-91.6875,10.625,275.625,-0.516113,-0.611694,-0.375122,-0.467712
48.875,338.312,444.375,8.85,8.35,3.35,19.5625,-22.6875,-9.6875,-91.3125,15.25,267.75,-0.484619,-0.613892,-0.366638,-0.503784
34.25,337.25,466.125,6.43,8.35,3.35,19.5625,-22.6875,-9.6875,-91.3125,15.25,267.75,-0.484619,-0.613892,-0.366638,-0.503784
-17.8125,287.438,453.625,-3.74,8.19,13.13,17,-26.0625,-6.5,-90.3125,19.625,260.75,-0.456909,-0.61438,-0.35376,-0.537292
-113.812,200.125,379.688,-4.43,5.64,7.64,17,-26.0625,-6.5,-85.875,25.875,252.562,-0.431824,-0.605408,-0.318115,-0.588013
-191.875,141.875,275.25,-1.33,4.07,4.51,17,-26.0625,-6.5,-83,27.625,250.812,-0.431335,-0.596619,-0.30072,-0.606323
-231.5,105.5,188.438,6.21,2.26,4.52,17,-26.0625,-6.5,-80.125,29.0625,249.625,-0.432739,-0.587463,-0.283447,-0.622314
-238.25,85.6875,160.938,16.79,2.26,4.52,17,-26.0625,-6.5,-80.125,29.0625,249.625,-0.432739,-0.587463,-0.283447,-0.622314
-235.188,88.5625,181.562,19.67,2.76,5.47,8.5,-30.875,-3.5625,-77.1875,30.5625,248.188,-0.432617,-0.578308,-0.265198,-0.638794
-233.688,119.188,223.938,21.29,5.31,6.67,8.5,-30.875,-3.5625,-70.125,34.375,243.625,-0.421936,-0.555725,-0.225769,-0.679871
-236.25,164.125,267.75,21.22,8.66,10.56,8.5,-30.875,-3.5625,-65.625,36.3125,240.688,-0.412354,-0.540588,-0.204346,-0.704285
-250.625,201.25,299.812,17.68,9.89,11.23,8.5,-30.875,-3.5625,-60.4375,38.0625,237.812,-0.402954,-0.522888,-0.180359,-0.729187
-286.312,212.625,310.875,16.14,9.89,11.23,8.5,-30.875,-3.5625,-60.4375,38.0625,237.812,-0.402954,-0.522888,-0.180359,-0.729187
-336.812,203.875,301.5,15.47,10.74,11.53,4,-30.875,-8.875,-54.5625,39.5,235.438,-0.395752,-0.502991,-0.153076,-0.75293
-391.875,171.25,280.125,14.74,9.03,10.46,4,-30.875,-8.875,-41.8125,41.5,232.688,-0.392029,-0.462158,-0.086792,-0.79071
-438.688,116.562,249.688,14.73,6.99,9.58,4,-30.875,-8.875,-35.5625,42.3125,232.375,-0.395142,-0.444092,-0.0493164,-0.802612
-464.562,57.5,213,15.94,5.04,8.77,4,-30.875,-8.875,-29.6875,43.125,232.562,-0.400391,-0.42804,-0.0114746,-0.81012
-467,11.8125,174.688,17.88,5.04,8.77,4,-30.875,-8.875,-29.6875,43.125,232.562,-0.400391,-0.42804,-0.0114746,-0.81012
-451.125,-8.1875,139.688,21.66,2.79,9.34,-0.375,-28.5625,-18.6875,-24.1875,43.8125,233.062,-0.406799,-0.413147,0.0246582,-0.814392
-427.375,-2.1875,111.438,23.29,3.19,12.43,-0.375,-28.5625,-18.6875,-14.25,44.375,234.375,-0.420715,-0.381897,0.088623,-0.818115
-407.875,18.25,95.3125,23.88,3.91,12.69,-0.375,-28.5625,-18.6875,-9.5,44.1875,235.062,-0.42749,-0.364197,0.117493,-0.819031
-397.438,39.1875,88.5625,23.33,4.2,12.31,-0.375,-28.5625,-18.6875,-4.9375,43.75,235.812,-0.434143,-0.34552,0.144714,-0.819275
-386.688,53.9375,80,20.31,4.2,12.31,-0.375,-28.5625,-18.6875,-4.9375,43.75,235.812,-0.434143,-0.34552,0.144714,-0.819275
-373.375,57.4375,62,18.33,4.29,12.74,-3.375,-19.375,-26.75,-0.75,43.1875,236.625,-0.441223,-0.326904,0.170166,-0.818237
-361.875,45.3125,33.3125,16.63,4.63,13.69,-3.375,-19.375,-26.75,6.375,42.625,239.062,-0.458862,-0.294922,0.217834,-0.809326
-354.312,17.5,-2.8125,15.72,4.06,13.19,-3.375,-19.375,-26.75,9.375,42.8125,240.75,-0.469604,-0.283386,0.241272,-0.800598
-347.062,-19,-39.125,16.17,3.55,12.94,-3.375,-19.375,-26.75,12.125,43.4375,242.688,-0.481018,-0.274963,0.264282,-0.789429
-335.25,-53.3125,-68.4375,16.85,3.55,12.94,-3.375,-19.375,-26.75,12.125,43.4375,242.688,-0.481018,-0.274963,0.264282,-0.789429
-318.062,-73.125,-89.4375,17.62,3.28,12.98,-2.25,-8.5,-31.6875,14.5625,44.375,244.75,-0.492493,-0.268799,0.286255,-0.776672
-297.812,-75.75,-103.5,18,3.1,12.92,-2.25,-8.5,-31.6875,18.5,46.3125,249,-0.515442,-0.259277,0.324768,-0.74939
-277.875,-70.1875,-112,17.44,2.77,12.44,-2.25,-8.5,-31.6875,20.0625,47.3125,251.188,-0.526611,-0.255493,0.34137,-0.735413
-257.938,-67.375,-118.688,16.8,2.52,11.99,-2.25,-8.5,-31.6875,21.375,48.375,253.312,-0.537354,-0.25293,0.356201,-0.721375
-235.062,-69.3125,-125.938,16.85,2.52,11.99,-2.25,-8.5,-31.6875,21.375,48.375,253.312,-0.537354,-0.25293,0.356201,-0.721375
-209,-75.5625,-130.062,15.8,2.6,11.3,-4.0625,-1.0625,-33.25,22.375,49.5,255.438,-0.547363,-0.251892,0.369507,-0.707397
-181.938,-84.3125,-133.062,15.08,3.41,10.86,-4.0625,-1.0625,-33.25,23.4375,52.125,259.375,-0.564758,-0.255249,0.391785,-0.679993
-154.875,-93.3125,-138.812,13.51,4,11.42,-4.0625,-1.0625,-33.25,23.4375,53.625,261.375,-0.572876,-0.259766,0.400757,-0.666138
-130.125,-100.625,-152.312,12.42,4.24,11.52,-4.0625,-1.0625,-33.25,22.9375,55.25,263.438,-0.581299,-0.266235,0.408325,-0.651489
-111.188,-107.688,-172.562,11.84,4.24,11.52,-4.0625,-1.0625,-33.25,22.9375,55.25,263.438,-0.581299,-0.266235,0.408325,-0.651489
-98.625,-121.875,-192.75,12.26,3.97,11.53,-6.6875,5.5,-32.5,22,57,265.688,-0.589783,-0.274719,0.415344,-0.635742
-88.9375,-135.562,-207.875,13,3.44,11.65,-6.6875,5.5,-32.5,18.8125,61,270.375,-0.605957,-0.295898,0.428101,-0.601685
-79.25,-144.5,-214.75,13.54,2.99,10.78,-6.6875,5.5,-32.5,16.625,63.0625,272.688,-0.612793,-0.307739,0.434021,-0.58429
-69.3125,-153,-213,13.29,3.27,10.29,-6.6875,5.5,-32.5,14.125,65.125,274.938,-0.618225,-0.320435,0.440063,-0.566956
-58.9375,-167,-206.812,12.36,3.27,10.29,-6.6875,5.5,-32.5,14.125,65.125,274.938,-0.618225,-0.320435,0.440063,-0.566956
-47.5625,-183.375,-205.875,11.65,3.94,10.21,-10.375,7.375,-32.1875,11.0625,67.3125,277.125,-0.622375,-0.33429,0.446228,-0.549316
-36.625,-193.562,-213.812,11.62,4.42,10.74,-10.375,7.375,-32.1875,1.5625,71.5625,281.688,-0.628906,-0.365234,0.457092,-0.511963
-29.125,-200.562,-224.25,12.5,3.86,10.76,-10.375,7.375,-32.1875,-5.5625,73.5,284.125,-0.631592,-0.381653,0.461853,-0.492065
-25.9375,-207.125,-232.688,13.3,3.08,11.46,-10.375,7.375,-32.1875,-14.6875,75.0625,286.688,-0.633972,-0.398071,0.466187,-0.471436
-26.1875,-208.125,-238.875,14.82,3.08,11.46,-10.375,7.375,-32.1875,-14.6875,75.0625,286.688,-0.633972,-0.398071,0.466187,-0.471436
-29.4375,-189.562,-242.875,15.3,2.61,10.08,-14.875,6.1875,-29.6875,-25.4375,76,289.375,-0.636963,-0.413452,0.469177,-0.450745
-30.8125,-158.375,-248.875,15.27,2.69,9.45,-14.875,6.1875,-29.6875,-46.9375,75.3125,295.062,-0.64624,-0.440857,0.468384,-0.410767
-26.3125,-125.75,-258.312,15.37,2.43,8.63,-14.875,6.1875,-29.6875,-55.125,73.875,298,-0.652405,-0.453369,0.463867,-0.391968
-18.6875,-90.0625,-266.562,15.34,1.84,10.28,-14.875,6.1875,-29.6875,-61,71.875,300.812,-0.659424,-0.465088,0.456726,-0.374512
-10.125,-54,-270.375,15.08,1.84,10.28,-14.875,6.1875,-29.6875,-61,71.875,300.812,-0.659424,-0.465088,0.456726,-0.374512
-7.5625,-15.6875,-268.125,13.89,1.81,10.14,-19.6875,3.1875,-27.0625,-64.6875,69.6875,303.5,-0.66748,-0.475342,0.447144,-0.358582
-12.375,15.0625,-262.375,12.25,2.33,8.76,-19.6875,3.1875,-27.0625,-68.3125,64.875,308.625,-0.685425,-0.491699,0.424072,-0.329529
-15.625,30,-260,10.55,2.64,7.32,-19.6875,3.1875,-27.0625,-69.4375,62.375,311.188,-0.694397,-0.499023,0.411926,-0.314819
-18.875,28.9375,-261.875,8.15,2.87,6.19,-19.6875,3.1875,-27.0625,-70.5625,59.875,313.875,-0.702881,-0.506531,0.400024,-0.299011
-21.6875,17.625,-268.75,8,2.87,6.19,-19.6875,3.1875,-27.0625,-70.5625,59.875,313.875,-0.702881,-0.506531,0.400024,-0.299011
-13.1875,21.8125,-279.438,7.8,2.66,5.35,-20.75,-1.875,-26.25,-71.5,57.25,316.562,-0.710999,-0.514465,0.387024,-0.282776
9.0625,51.3125,-292,8.12,2.14,5.22,-20.75,-1.875,-26.25,-72.625,51.375,321.312,-0.726807,-0.532654,0.350952,-0.2547
38.625,93.4375,-300.25,9.16,0.83,3.74,-20.75,-1.875,-26.25,-72.75,48.125,323.062,-0.73407,-0.542847,0.326477,-0.244751
74.6875,147.375,-304.5,9.75,0.78,4.04,-20.75,-1.875,-26.25,-72.75,44.75,324.25,-0.740234,-0.553955,0.296997,-0.238586
118.312,208.438,-304,9.72,0.78,4.04,-20.75,-1.875,-26.25,-72.75,44.75,324.25,-0.740234,-0.553955,0.296997,-0.238586
164.688,267.125,-297.375,6.66,3.85,5.59,-18.5625,-6.0625,-25.375,-72.875,41.1875,324.75,-0.744751,-0.565979,0.262878,-0.236511
220.25,281.438,-282.438,6.48,5.86,8.95,-18.5625,-6.0625,-25.375,-75.3125,35.0625,324.562,-0.739929,-0.597961,0.197754,-0.236328
277.812,190,-238.75,8.16,4.26,11.04,-18.5625,-6.0625,-25.375,-77.875,33.3125,324.375,-0.729736,-0.617126,0.178345,-0.234131
289.062,76.6875,-173.5,4.66,2.34,8.16,-18.5625,-6.0625,-25.375,-80.625,32.0625,324.562,-0.718445,-0.635071,0.166931,-0.229431
259.375,-8.75,-130.562,3.18,2.34,8.16,-18.5625,-6.0625,-25.375,-80.625,32.0625,324.562,-0.718445,-0.635071,0.166931,-0.229431
227.25,-44.625,-114.625,4.44,2.4,6.95,-12.6875,-13.75,-26.5625,-83.1875,31,324.938,-0.707703,-0.651184,0.158997,-0.223206
211.375,-47.625,-102.5,4.68,2.67,5.71,-12.6875,-13.75,-26.5625,-87.9375,29.25,325.688,-0.686157,-0.68042,0.146545,-0.21167
211.125,-54.5,-88.9375,4.61,3.39,3.1,-12.6875,-13.75,-26.5625,-90.4375,28.5,326,-0.673828,-0.695312,0.14209,-0.205811
221.5,-69.3125,-78.1875,2.96,3.66,3.06,-12.6875,-13.75,-26.5625,-93.1875,27.75,326.375,-0.660034,-0.710999,0.138367,-0.199158
236.375,-86.875,-76.3125,2.06,3.66,3.06,-12.6875,-13.75,-26.5625,-93.1875,27.75,326.375,-0.660034,-0.710999,0.138367,-0.199158
251.5,-105.125,-84.25,1.47,4.13,3.54,-9.75,-21.25,-23,-96.0625,26.8125,327,-0.644958,-0.727539,0.134888,-0.19104
263.375,-120.625,-99.125,1.37,5.45,8,-9.75,-21.25,-23,-102.25,24.375,328.938,-0.611938,-0.762085,0.126221,-0.169861
270.25,-126.625,-117.562,2.18,5.37,9.5,-9.75,-21.25,-23,-105.188,22.875,330.25,-0.595276,-0.778687,0.119873,-0.15802
266.188,-119.375,-135,2.71,4.91,8.29,-9.75,-21.25,-23,-107.75,21.1875,331.562,-0.579712,-0.793701,0.111572,-0.146667
248.562,-96.5,-148.562,2.33,4.91,8.29,-9.75,-21.25,-23,-107.75,21.1875,331.562,-0.579712,-0.793701,0.111572,-0.146667
230.875,-69.375,-159.25,3.87,4.07,5.84,-10.875,-26.5,-16,-110.062,19.5,332.875,-0.565369,-0.807129,0.10144,-0.136353
222.375,-56.125,-163.938,5.48,3.77,6.14,-10.875,-26.5,-16,-114.25,16.25,335.312,-0.537598,-0.831238,0.0793457,-0.117432
217.625,-48.75,-157.312,6.33,3.11,6.06,-10.875,-26.5,-16,-116.25,14.875,336.25,-0.52356,-0.842041,0.0688477,-0.110046
214.25,-34.3125,-141.062,6.17,2.77,6.33,-10.875,-26.5,-16,-118.188,13.75,336.75,-0.509521,-0.852051,0.05896,-0.104736
211.062,-16,-121.812,6.15,2.77,6.33,-10.875,-26.5,-16,-118.188,13.75,336.75,-0.509521,-0.852051,0.05896,-0.104736
205.438,-0.9375,-102.125,4.78,2.6,5.87,-8.25,-30.875,-9.5625,-120.062,12.875,336.875,-0.495544,-0.861206,0.0498047,-0.101257
200.625,18.5,-88.25,3.39,2.63,5.68,-8.25,-30.875,-9.5625,-123.625,11.75,335.875,-0.467896,-0.877563,0.03125,-0.0998535
197.875,40.125,-86.3125,2.37,2.48,5.21,-8.25,-30.875,-9.5625,-125.312,11.3125,335.062,-0.454346,-0.884888,0.020813,-0.100281
194.25,48.5625,-92.625,2.09,2.35,4.71,-8.25,-30.875,-9.5625,-126.938,10.75,334.375,-0.440918,-0.891846,0.0098877,-0.100159
190.875,45.6875,-101.25,2.38,2.35,4.71,-8.25,-30.875,-9.5625,-126.938,10.75,334.375,-0.440918,-0.891846,0.0098877,-0.100159
192,37.875,-110.188,3.23,2.22,4.64,-5.6875,-33.875,-3.5,-128.625,10.125,333.875,-0.427368,-0.898621,-0.00146484,-0.0990601
195.375,28.125,-115.375,4.29,2.02,4.91,-5.6875,-33.875,-3.5,-132.125,8.75,333.438,-0.39917,-0.911743,-0.0239868,-0.0941772
197.625,19.125,-115.312,5.78,0.94,5.49,-5.6875,-33.875,-3.5,-133.938,8.0625,333.312,-0.384521,-0.917969,-0.034729,-0.0910645
199.938,14.375,-112.562,6.58,0.57,5.36,-5.6875,-33.875,-3.5,-135.812,7.4375,174.375,-0.369629,-0.923889,-0.045105,-0.0882568
201.625,16.4375,-106.75,7.17,0.57,5.36,-5.6875,-33.875,-3.5,-135.812,7.4375,174.375,-0.369629,-0.923889,-0.045105,-0.0882568
201.938,23.125,-97.9375,7.63,0.38,3.81,-3.1875,-33.75,2.1875,-137.625,6.9375,173.188,-0.354431,-0.929504,-0.0549316,-0.0862427
203.125,31.875,-88.25,8.42,0.27,3.4,-3.1875,-33.75,2.1875,-141.438,6.4375,171,-0.322754,-0.939758,-0.0735474,-0.0852051
208.125,45.3125,-81.8125,8.89,0.09,3.39,-3.1875,-33.75,2.1875,-143.375,6.5,169.938,-0.305847,-0.944458,-0.0829468,-0.0869141
214.125,64.625,-77.0625,9.12,-0.2,3.33,-3.1875,-33.75,2.1875,-145.375,6.75,168.812,-0.288147,-0.94873,-0.0928955,-0.0905762
220.062,90.375,-75.3125,9.68,-0.2,3.33,-3.1875,-33.75,2.1875,-145.375,6.75,168.812,-0.288147,-0.94873,-0.0928955,-0.0905762
225.812,118.188,-76.3125,9.65,-0.5,2.91,-0.1875,-33.75,8.6875,-147.438,7.3125,167.562,-0.269653,-0.952515,-0.103577,-0.0964355
230.938,145,-80.375,9.6,-0.76,2.51,-0.1875,-33.75,8.6875,-151.5,9.125,164.75,-0.230286,-0.957947,-0.128052,-0.11377
237.125,170.938,-89.125,9.38,-1.15,1.75,-0.1875,-33.75,8.6875,-153.562,10.3125,163.125,-0.20929,-0.959412,-0.142334,-0.124573
244.875,191.25,-101.625,9.66,-1.35,2.37,-0.1875,-33.75,8.6875,-155.688,11.625,161.312,-0.187439,-0.959961,-0.157715,-0.135864
253.5,202.25,-113.625,11.02,-1.35,2.37,-0.1875,-33.75,8.6875,-155.688,11.625,161.312,-0.187439,-0.959961,-0.157715,-0.135864
259.438,200.312,-118,12.55,-1.63,2.59,1.5625,-30.5625,14.25,-157.812,12.9375,159.5,-0.165039,-0.959778,-0.17334,-0.146729
261.25,191.438,-112.375,14.13,-2.01,0.91,1.5625,-30.5625,14.25,-162.062,15.625,156.188,-0.119507,-0.957764,-0.201904,-0.166199
261.688,183.312,-99.25,15.85,-2.18,0.59,1.5625,-30.5625,14.25,-164.25,17.0625,154.688,-0.0962524,-0.956055,-0.214233,-0.175415
263.75,180.938,-84.8125,15.75,-2.26,0.48,1.5625,-30.5625,14.25,-166.438,18.625,153.312,-0.0722656,-0.953674,-0.22583,-0.185059
268.25,187.938,-76.5,15.32,-2.26,0.48,1.5625,-30.5625,14.25,-166.438,18.625,153.312,-0.0722656,-0.953674,-0.22583,-0.185059
272.688,198,-77.6875,15.03,-2.22,0.85,1.5625,-28,20,-168.688,20.375,151.938,-0.0477295,-0.950378,-0.237427,-0.195251
273.938,202.938,-86.75,16.34,-2.27,1.21,1.5625,-28,20,-173,24,148.75,0.00128174,-0.94043,-0.262451,-0.216187
271.75,207.562,-97.9375,18.12,-2.6,2.04,1.5625,-28,20,-175,26,147.125,0.0253906,-0.933655,-0.27533,-0.2276
265.75,219.625,-102.938,19.6,-3.06,2.48,1.5625,-28,20,-176.875,28.25,145.438,0.0490112,-0.925842,-0.287537,-0.240417
254.562,236,-100.312,21.32,-3.06,2.48,1.5625,-28,20,-176.875,28.25,145.438,0.0490112,-0.925842,-0.287537,-0.240417
239.25,252.125,-93.1875,20.86,-3.34,2.75,0.0625,-22.0625,24.875,-178.625,30.625,143.938,0.0718994,-0.916992,-0.298462,-0.254578
221.812,266.625,-88.9375,20.4,-3.91,2.69,0.0625,-22.0625,24.875,178.312,35.875,140.938,0.114563,-0.896606,-0.31781,-0.286255
205.125,273.312,-92.3125,21.1,-6.68,-1.04,0.0625,-22.0625,24.875,177.062,38.5,139.438,0.134277,-0.885193,-0.327087,-0.302307
196,270.812,-96.4375,23.32,-7.21,-1.68,0.0625,-22.0625,24.875,175.75,41.0625,137.875,0.153931,-0.87323,-0.336243,-0.317322
199.812,261.375,-95.5,23.72,-7.21,-1.68,0.0625,-22.0625,24.875,175.75,41.0625,137.875,0.153931,-0.87323,-0.336243,-0.317322
215.875,247.312,-91.75,23.86,-7.45,-1.92,-2.0625,-17.1875,28.1875,174.25,43.5625,136.25,0.174316,-0.86084,-0.345459,-0.330444
238.062,231.75,-90.9375,24.11,-7.46,-2.01,-2.0625,-17.1875,28.1875,170.75,48.0625,116.188,0.21814,-0.834045,-0.365784,-0.350708
261.188,216.688,-95.9375,24.27,-6.97,-2.17,-2.0625,-17.1875,28.1875,168.75,50.25,112.125,0.241089,-0.819031,-0.377747,-0.358337
282.312,206.75,-107.188,24.75,-6.72,-1.74,-2.0625,-17.1875,28.1875,166.812,52.375,108.125,0.264343,-0.802612,-0.390808,-0.36499
298.25,200.5,-120.562,25.47,-6.4,-1.74,-2.0625,-17.1875,28.1875,166.812,52.375,108.125,0.264343,-0.802612,-0.390808,-0.36499
306.125,197.062,-130.938,26.36,-5.81,-0.83,-6.5625,-11.6875,29.75,164.875,54.5625,104.438,0.287415,-0.784973,-0.404541,-0.370972
306.062,197.062,-138,26.56,-5.73,-0.41,-6.5625,-11.6875,29.75,161.25,59,101.062,0.331665,-0.746521,-0.431641,-0.382629
299.375,200.125,-144.188,26.84,-5.76,0.38,-6.5625,-11.6875,29.75,159.75,61.375,95.6875,0.352234,-0.726013,-0.444336,-0.38916
287,205.812,-149.438,27.06,-5.8,1.46,-6.5625,-11.6875,29.75,158.312,63.8125,93.6875,0.371704,-0.704834,-0.455933,-0.396423
270.688,214.375,-152,27.11,-6.22,1.46,-6.5625,-11.6875,29.75,158.312,63.8125,93.6875,0.371704,-0.704834,-0.455933,-0.396423
251.5,224.75,-151.125,26.73,-6.61,1.97,-10.25,-6.1875,29.25,157,66.4375,92.0625,0.390076,-0.683228,-0.466064,-0.404663
228.812,233.375,-148.5,26.49,-7.11,2.02,-10.25,-6.1875,29.25,154.75,69.0625,90.875,0.422974,-0.640015,-0.481506,-0.423828
205.562,239,-146.125,26.78,-7.85,-2.55,-10.25,-6.1875,29.25,153.688,74.4375,89.5,0.437805,-0.618469,-0.487244,-0.434082
190.312,241.812,-143.75,26.95,-8.79,-2.97,-10.25,-6.1875,29.25,152.438,77.1875,88.875,0.452332,-0.596558,-0.492432,-0.44397
189.875,241.875,-140.625,26.43,-8.6,-2.97,-10.25,-6.1875,29.25,152.438,77.1875,88.875,0.452332,-0.596558,-0.492432,-0.44397
200.375,238.875,-139.062,25.84,-8.23,-2.48,-15.1875,-1.5625,26.0625,150.938,79.8125,88.1875,0.466919,-0.573914,-0.49762,-0.452759
211.812,234.25,-140.5,25.61,-7.91,-1.64,-15.1875,-1.5625,26.0625,177.312,85.125,86.625,0.495728,-0.526245,-0.508484,-0.467773
217.812,232.938,-143,25.93,-7.63,-0.08,-15.1875,-1.5625,26.0625,178.625,87.8125,85.875,0.509766,-0.501404,-0.513245,-0.474731
217.5,237.375,-142.125,25.97,-7.63,-0.09,-15.1875,-1.5625,26.0625,0.0625,89.25,85.1875,0.523682,-0.476318,-0.516724,-0.481567
211.875,245.062,-136.125,25.54,-7.77,-0.09,-15.1875,-1.5625,26.0625,0.0625,89.25,85.1875,0.523682,-0.476318,-0.516724,-0.481567
204.25,253,-127.062,24.1,-8.38,-0.83,-20.375,0.1875,22.375,-1.1875,86.625,84.4375,0.537537,-0.451294,-0.518738,-0.48822
196.625,257.562,-117.188,23.33,-8.77,-1.52,-20.375,0.1875,22.375,-25.25,81.1875,83.75,0.564758,-0.401917,-0.518982,-0.500183
191.25,257.938,-106.438,21.99,-9.02,-2.62,-20.375,0.1875,22.375,-25.9375,78.5625,82.25,0.57782,-0.377808,-0.518066,-0.505005
188.562,252.062,-98.1875,20.68,-9.12,-3.29,-20.375,0.1875,22.375,-26.875,76.0625,81.5625,0.589966,-0.354004,-0.517273,-0.508972
188.25,240.062,-97.1875,17.76,-8.59,-3.29,-20.375,0.1875,22.375,-26.875,76.0625,81.5625,0.589966,-0.354004,-0.517273,-0.508972
189.812,225,-106.375,16.08,-8.33,-3.27,-25.25,1.75,17.0625,-28.375,73.6875,80.9375,0.600708,-0.330078,-0.517212,-0.512512
191.75,209,-129.75,15.41,-7.78,-3.23,-25.25,1.75,17.0625,-33.375,68.875,80.5,0.615479,-0.279846,-0.520874,-0.521118
193.938,193.5,-163.5,15.81,-6.96,-1.51,-25.25,1.75,17.0625,-36.5625,66.3125,80.75,0.619324,-0.25293,-0.524414,-0.526794
195.625,182.875,-195.312,17.31,-5.59,-0.63,-25.25,1.75,17.0625,-39.6875,63.6875,81.1875,0.621399,-0.225403,-0.528259,-0.532959
193.562,175.062,-214.938,18,-5.29,-0.63,-25.25,1.75,17.0625,-39.6875,63.6875,81.1875,0.621399,-0.225403,-0.528259,-0.532959
184.375,170.062,-220.312,18.23,-5.11,0.06,-27.5,0.6875,10.5625,-42.5,61.0625,81.8125,0.622314,-0.198181,-0.531616,-0.539307
167.25,171,-214.125,17.88,-4.96,0.46,-27.5,0.6875,10.5625,-46.375,58.4375,82.4375,0.623413,-0.146851,-0.533691,-0.552246
145.125,178.125,-202.688,16.62,-4.6,-0.01,-27.5,0.6875,10.5625,-47.4375,53.25,83.625,0.624329,-0.123291,-0.531677,-0.558899
120.688,186.312,-188.312,15.78,-4.39,-0.79,-27.5,0.6875,10.5625,-48.0625,50.8125,84.1875,0.625549,-0.10144,-0.527954,-0.565369
97.1875,189.562,-171.938,14.68,-4.13,-0.79,-27.5,0.6875,10.5625,-48.0625,50.8125,84.1875,0.625549,-0.10144,-0.527954,-0.565369
78.875,184.438,-155.812,12.48,-3.56,-2.1,-30.1875,-2.5625,5.6875,-48.4375,48.5,84.6875,0.626892,-0.0814819,-0.523193,-0.571533
67,171.938,-142.562,11.38,-3.33,-2.36,-30.1875,-2.5625,5.6875,-49,44.375,85.625,0.628479,-0.0466309,-0.513489,-0.582336
61.0625,156.25,-133.562,10.17,-3.02,-1.84,-30.1875,-2.5625,5.6875,-49.375,42.5625,86.125,0.628296,-0.0309448,-0.509338,-0.587219
58.375,140.75,-130.125,8.64,-2.59,-1.11,-30.1875,-2.5625,5.6875,-49.8125,40.75,86.6875,0.627136,-0.0159912,-0.505676,-0.592224
54.875,126.312,-134.312,6.91,-1.81,-1.11,-30.1875,-2.5625,5.6875,-49.8125,40.75,86.6875,0.627136,-0.0159912,-0.505676,-0.592224
49.0625,113.938,-145.688,6.71,-1.54,-1.13,-29.75,-6,1.6875,-50.375,38.9375,87.4375,0.624695,-0.00146484,-0.502197,-0.597961
42.5,103.062,-157.75,6.61,-1.35,-1.17,-29.75,-6,1.6875,-50.9375,37.125,88.4375,0.621033,0.0261841,-0.495667,-0.611389
36.1875,91,-165.375,6.56,-1.19,-1.36,-29.75,-6,1.6875,-52.125,33.625,90.6875,0.610718,0.0387573,-0.49292,-0.61853
31.4375,75.9375,-167.375,6.42,-0.74,-1.26,-29.75,-6,1.6875,-52.6875,32,91.9375,0.604431,0.0501099,-0.490723,-0.625549
27.4375,59.125,-164.25,6.2,-0.46,-1.26,-29.75,-6,1.6875,-52.6875,32,91.9375,0.604431,0.0501099,-0.490723,-0.625549
23.5625,41.1875,-158.375,5.77,-0.18,-1.07,-28.75,-10,-1.5,-53.3125,30.5625,93.1875,0.597595,0.0599976,-0.489136,-0.632446
17.8125,23.625,-151.625,5.57,-0.04,-0.8,-28.75,-10,-1.5,-53.875,29.25,94.5,0.590332,0.0684204,-0.488098,-0.639221
9.3125,8.125,-145.312,5.5,0.08,-0.27,-28.75,-10,-1.5,-54.75,27,97.25,0.574951,0.0805664,-0.486633,-0.652771
-1.375,-5.6875,-137.062,5.48,0.16,-0.28,-28.75,-10,-1.5,-55.0625,26.0625,98.5625,0.567322,0.0842285,-0.485901,-0.659546
-12.6875,-17.5,-126.75,5.3,0.24,-0.28,-28.75,-10,-1.5,-55.0625,26.0625,98.5625,0.567322,0.0842285,-0.485901,-0.659546
-22.8125,-27.4375,-115.375,4.93,0.37,-0.29,-27.25,-14.0625,-1.5,-55.25,25.3125,100,0.559143,0.0858154,-0.485168,-0.666748
-31.125,-35.3125,-105.5,4.29,0.78,0.18,-27.25,-14.0625,-1.5,-55.375,24.6875,101.25,0.552002,0.0866699,-0.484314,-0.673279
-39.125,-40.5625,-98.4375,4.05,0.99,0.71,-27.25,-14.0625,-1.5,-55.3125,23.625,103.75,0.538086,0.0856323,-0.48175,-0.68634
-48.25,-44.3125,-94.75,3.78,1.15,1.04,-27.25,-14.0625,-1.5,-55.125,23.125,105.062,0.531189,0.0841064,-0.479736,-0.693298
-59,-45.5625,-93.4375,3.47,1.38,1.04,-27.25,-14.0625,-1.5,-55.125,23.125,105.062,0.531189,0.0841064,-0.479736,-0.693298
-71.4375,-46.125,-93.6875,3.38,1.44,1.13,-26.1875,-17,-2,-54.8125,22.625,106.375,0.52417,0.0819092,-0.476929,-0.700745
-85.1875,-47.0625,-94.25,3.14,1.58,1.17,-26.1875,-17,-2,-54.3125,22.125,107.688,0.517273,0.0791626,-0.473267,-0.708618
-100,-52.5625,-94.375,2.87,1.67,0.85,-26.1875,-17,-2,-53.0625,21.3125,110.562,0.502625,0.0703125,-0.46405,-0.726013
-115.312,-63,-94.0625,2.63,1.78,0.69,-26.1875,-17,-2,-52.25,21.0625,112.125,0.494568,0.0636597,-0.458801,-0.735413
-129.438,-78.3125,-93.125,2.58,1.69,0.69,-26.1875,-17,-2,-52.25,21.0625,112.125,0.494568,0.0636597,-0.458801,-0.735413
-141.562,-96.125,-91.625,2.51,1.6,0.56,-24.25,-18.875,-0.6875,-50.4375,21,115.5,0.476379,0.0454102,-0.44812,-0.755127
-151,-112.75,-89.6875,2.32,1.53,0.85,-24.25,-18.875,-0.6875,-49.5,21.125,117.25,0.466431,0.0343018,-0.442627,-0.765076
-158.75,-126.125,-88.75,1.76,1.59,1.14,-24.25,-18.875,-0.6875,-48.5,21.3125,119.062,0.455872,0.0220337,-0.437073,-0.775024
-166.062,-140.125,-88.625,1.61,1.79,1.37,-24.25,-18.875,-0.6875,-47.4375,21.6875,120.938,0.444458,0.00836182,-0.431458,-0.785034
-174.125,-156.688,-89.6875,1.72,1.93,1.37,-24.25,-18.875,-0.6875,-47.4375,21.6875,120.938,0.444458,0.00836182,-0.431458,-0.785034
-184.375,-175.062,-90.375,2.13,1.91,1.35,-24,-21.5,-1.1875,-46.4375,22.25,122.938,0.432068,-0.00689697,-0.425598,-0.795044
-195.438,-193.438,-88.6875,3.31,1.55,1.34,-24,-21.5,-1.1875,-45.3125,22.9375,125,0.418945,-0.0423584,-0.412903,-0.814514
-206,-209.688,-83.5625,3.53,1.36,0.97,-24,-21.5,-1.1875,-43.0625,24.8125,129.125,0.391418,-0.0623169,-0.405823,-0.823547
-215.125,-221.438,-75.75,3.78,1.17,0.72,-24,-21.5,-1.1875,-41.875,26,131.125,0.377563,-0.083252,-0.398315,-0.831787
-220.188,-229.625,-66.875,4.59,0.52,0.72,-24,-21.5,-1.1875,-41.875,26,131.125,0.377563,-0.083252,-0.398315,-0.831787
-220.188,-234.375,-57.8125,5.2,0.21,0.79,-22.0625,-23.25,-1.1875,-40.6875,27.375,133.062,0.363953,-0.104736,-0.390564,-0.83905
-215.5,-233.562,-50.25,5.87,-0.07,1.15,-22.0625,-23.25,-1.1875,-39.5625,28.75,134.938,0.350647,-0.126221,-0.382751,-0.845337
-208.5,-223.5,-44.125,6.58,-0.3,3.88,-22.0625,-23.25,-1.1875,-37.4375,31.5,138.25,0.326111,-0.166077,-0.366516,-0.855408
-202,-204.062,-38.4375,7.2,-0.67,4.96,-22.0625,-23.25,-1.1875,-36.3125,32.6875,139.688,0.315369,-0.18335,-0.357361,-0.859802
-199.562,-178.062,-32.375,7.16,-0.91,4.96,-22.0625,-23.25,-1.1875,-36.3125,32.6875,139.688,0.315369,-0.18335,-0.357361,-0.859802
-203.375,-156.25,-26.625,7.32,-1.11,5.91,-21.75,-25.0625,-1.5,-35.0625,33.75,141,0.305481,-0.19928,-0.347107,-0.864014
-214.75,-147.125,-21.0625,7.67,-1.24,6.71,-21.75,-25.0625,-1.5,-33.6875,34.8125,142.312,0.286499,-0.230957,-0.322266,-0.872192
-232.812,-146.062,-14.0625,8.08,-1.52,6.48,-21.75,-25.0625,-1.5,-30.1875,37.125,144.875,0.276978,-0.24762,-0.30719,-0.87616
-252.938,-146.25,-6.8125,8.37,-1.77,5.85,-21.75,-25.0625,-1.5,-28.125,38.375,146.188,0.267334,-0.264587,-0.290527,-0.879822
-270.375,-146.125,-1.3125,8.74,-1.98,5.85,-21.75,-25.0625,-1.5,-28.125,38.375,146.188,0.267334,-0.264587,-0.290527,-0.879822
-281.562,-144.5,2.375,8.92,-2.19,5.25,-21.375,-25.875,-1.1875,-25.875,39.625,147.438,0.257568,-0.281677,-0.272705,-0.883118
-285.5,-139.938,3.875,8.92,-2.77,4.81,-21.375,-25.875,-1.1875,-23.5625,40.875,148.75,0.247742,-0.313965,-0.235596,-0.888489
-284.75,-131.062,1.3125,8.75,-3.11,4.17,-21.375,-25.875,-1.1875,-18.9375,43.125,151.312,0.227356,-0.328613,-0.21698,-0.890625
-281.938,-122.438,-5.5,8.55,-4.4,4.18,-21.375,-25.875,-1.1875,-16.75,44.1875,152.75,0.216248,-0.342529,-0.198792,-0.892395
-277.125,-119.5,-15.75,8.19,-4.4,4.18,-21.375,-25.875,-1.1875,-16.75,44.1875,152.75,0.216248,-0.342529,-0.198792,-0.892395
-261.25,-132.75,-45.875,8.47,-4.9,4.11,-21.5,-25.0625,-6,-15,45.3125,154.375,0.202942,-0.356445,-0.1828,-0.893494
-261.25,-132.75,-45.875,9.05,-5.55,4.54,-21.5,-25.0625,-6,-11.75,47.6875,157.812,0.174805,-0.383972,-0.152039,-0.893799
-249.812,-143.688,-63.25,9.79,-5.69,6.52,-21.5,-25.0625,-6,-10.625,49,159.75,0.15918,-0.397949,-0.138916,-0.892761
-237.312,-153.688,-78.75,11.41,-5.73,7.32,-21.5,-25.0625,-6,-9.75,50.375,161.75,0.142639,-0.41217,-0.126892,-0.890869
-228.875,-163.938,-91.125,12.53,-5.73,7.32,-21.5,-25.0625,-6,-9.75,50.375,161.75,0.142639,-0.41217,-0.126892,-0.890869
-236,-180.062,-101.75,13.69,-5.72,7.83,-20.6875,-23.25,-8.375,-9.0625,51.9375,164,0.124756,-0.427307,-0.114746,-0.888062
-236,-180.062,-101.75,14.86,-5.77,8.03,-20.6875,-23.25,-8.375,-7.625,55.125,168.5,0.088623,-0.45697,-0.0892944,-0.880554
-248.438,-181.25,-97.9375,17.06,-6.68,7.99,-20.6875,-23.25,-8.375,-6.3125,56.75,170.625,0.0714111,-0.471741,-0.072998,-0.875793
-274,-181.125,-70.8125,17.74,-6.83,8.69,-20.6875,-23.25,-8.375,-4.625,58.5625,172.75,0.0546875,-0.486877,-0.0550537,-0.869995
-287.438,-188.688,-55.1875,17.78,-6.83,8.69,-20.6875,-23.25,-8.375,-4.625,58.5625,172.75,0.0546875,-0.486877,-0.0550537,-0.869995
-304.188,-194.562,-47.4375,17.7,-6.89,9.43,-20.375,-23.25,-9.1875,-2.6875,60.375,174.938,0.0377197,-0.502136,-0.0355225,-0.86322
-322.188,-189.062,-46.25,19.09,-7.06,9.61,-20.375,-23.25,-9.1875,1.9375,63.875,179.75,0.00177002,-0.529175,0.00775146,-0.848511
-340.125,-170.812,-45.4375,20.28,-8.03,8.81,-20.375,-23.25,-9.1875,4.6875,65.25,182.25,-0.0169067,-0.539124,0.0313721,-0.841492
-355.562,-141.812,-40.625,21.21,-9.07,6.63,-20.375,-23.25,-9.1875,7.75,66.3125,184.875,-0.0356445,-0.545898,0.0557251,-0.835266
-363.5,-105.188,-34.75,21.73,-9.07,6.63,-20.375,-23.25,-9.1875,7.75,66.3125,184.875,-0.0356445,-0.545898,0.0557251,-0.835266
-360.562,-64,-31.3125,21.24,-9.39,5.95,-22.5625,-21.0625,-11.1875,10.75,66.9375,187.438,-0.0541382,-0.549194,0.079895,-0.830078
-348.75,-28.1875,-32.8125,20.39,-9.26,5.88,-22.5625,-21.0625,-11.1875,15.9375,67.5,192.562,-0.0905762,-0.548401,0.124329,-0.82196
-333.75,-10.875,-39.625,19.15,-8.62,8.1,-22.5625,-21.0625,-11.1875,17.875,67.75,195.188,-0.10907,-0.547058,0.144165,-0.817322
-321.25,-10.9375,-54.75,16.29,-8.4,8.14,-22.5625,-21.0625,-11.1875,19.1875,68.1875,198,-0.128723,-0.546265,0.162048,-0.811646
-311.375,-18.6875,-80.375,15.49,-8.4,8.14,-22.5625,-21.0625,-11.1875,19.1875,68.1875,198,-0.128723,-0.546265,0.162048,-0.811646
-299,-26.75,-111.5,15.34,-8.08,7.69,-22.1875,-18.6875,-16.0625,19.75,68.75,201.062,-0.14978,-0.546204,0.177612,-0.80481
-282.5,-34.75,-140.688,15.81,-7.72,7.45,-22.1875,-18.6875,-16.0625,18.25,70.4375,207.688,-0.194275,-0.548279,0.20166,-0.788025
-265.938,-42.125,-162.375,16.91,-5.81,8.72,-22.1875,-18.6875,-16.0625,16.375,71.375,211.125,-0.216919,-0.55011,0.21106,-0.77832
-253.938,-47.5,-177.312,17.4,-5.31,9.41,-22.1875,-18.6875,-16.0625,13.8125,72.3125,214.625,-0.239746,-0.551697,0.219421,-0.768127
-247.562,-45.125,-185.75,17.82,-5.31,9.41,-22.1875,-18.6875,-16.0625,13.8125,72.3125,214.625,-0.239746,-0.551697,0.219421,-0.768127
-245.312,-33.4375,-186.25,18.4,-5.08,9.99,-20.6875,-15,-20.1875,10.75,73,218.188,-0.262573,-0.552124,0.227295,-0.757996
-242.75,-19.1875,-177.625,18.86,-4.91,9.18,-20.6875,-15,-20.1875,4.5,73.6875,224.938,-0.305786,-0.549072,0.242065,-0.739197
-233.188,-6.25,-163.562,18.15,-4.4,7.89,-20.6875,-15,-20.1875,1.5,73.75,227.938,-0.325256,-0.546509,0.248413,-0.730652
-215.312,-0.4375,-152.938,17.01,-3.52,7.58,-20.6875,-15,-20.1875,-1.625,73.75,230.812,-0.343384,-0.544434,0.253357,-0.722107
-193.5,-2.875,-151.375,14.59,-3.52,7.58,-20.6875,-15,-20.1875,-1.625,73.75,230.812,-0.343384,-0.544434,0.253357,-0.722107
-170.312,-11.9375,-158.312,13.74,-3,7.32,-20.375,-14.75,-23.375,-5.25,73.8125,233.625,-0.360535,-0.543518,0.256775,-0.713196
-144.812,-27.125,-169.688,13.05,-2.48,7.27,-20.375,-14.75,-23.375,-14.875,73.875,239,-0.392151,-0.547241,0.258362,-0.69281
-117.688,-45.8125,-185.312,12.33,-0.95,7.4,-20.375,-14.75,-23.375,-21.25,73.9375,241.688,-0.406677,-0.552551,0.256409,-0.680847
-90.125,-67.75,-204.188,11.66,-0.95,7.36,-20.375,-14.75,-23.375,-28.6875,73.75,244.375,-0.420532,-0.56012,0.25238,-0.667603
-62.25,-86.125,-224.875,11.77,-0.54,7.36,-20.375,-14.75,-23.375,-28.6875,73.75,244.375,-0.420532,-0.56012,0.25238,-0.667603
-33.875,-96.5625,-244.25,12.08,-0.2,7.29,-18.25,-12.5,-25,-36.75,73.25,247.125,-0.433777,-0.569458,0.246094,-0.653442
-5.1875,-101.062,-258.375,12.23,0.29,6.91,-18.25,-12.5,-25,-44.9375,72.375,249.812,-0.457275,-0.591431,0.227051,-0.624146
21.5,-99.4375,-266.688,12.8,1.53,8.99,-18.25,-12.5,-25,-59.125,69.4375,254.938,-0.467407,-0.603149,0.215271,-0.609436
40,-98.75,-268.688,12.69,2.01,9.84,-18.25,-12.5,-25,-64.9375,67.625,257.375,-0.476501,-0.615051,0.203247,-0.594421
