Gyro_x,Gyro_y,Gyro_z,Acc_x,Acc_y,Acc_z,Euler_x,Euler_y,Euler_z,Quat_0,Quat_1,Quat_2,Quat_3
0.0625,-0.3125,0,-0.26,0.22,9.57,-1,-2.25,9.6875,0.996155,0.010437,0.019104,-0.0846558
-0.0625,-0.3125,-0.0625,-0.26,0.19,9.55,-1,-2.25,9.6875,0.996155,0.010437,0.019104,-0.0846558
-0.25,-0.0625,0,-0.29,0.16,9.57,-1,-2.25,9.6875,0.996155,0.010437,0.019104,-0.0846558
-0.125,0.0625,0,-0.3,0.18,9.54,-1,-2.25,9.6875,0.996155,0.010437,0.019104,-0.0846558
-0.0625,0.1875,0,-0.28,0.15,9.55,-1,-2.25,9.6875,0.996155,0.010437,0.019104,-0.0846558
0,0.1875,0,-0.3,0.16,9.55,-1,-2.25,9.6875,0.996155,0.010437,0.019104,-0.0846558
0.125,0.375,0,-0.29,0.19,9.59,-1,-2.25,9.6875,0.996155,0.010437,0.019104,-0.0846558
0.25,0.25,-0.0625,-0.31,0.2,9.59,-1,-2.25,9.6875,0.996155,0.010437,0.019104,-0.0846558
0.125,0.3125,0.0625,-0.31,0.2,9.61,-1,-2.25,9.6875,0.996155,0.010437,0.019104,-0.0846558
-0.0625,0.125,0.125,-0.32,0.19,9.57,-1,-2.25,9.6875,0.996155,0.010437,0.019104,-0.0846558
-0.1875,-0.0625,0.0625,-0.3,0.16,9.6,-1,-2.25,9.6875,0.996155,0.010437,0.019104,-0.0846558
-0.1875,-0.25,0,-0.31,0.14,9.56,-1,-2.25,9.6875,0.996155,0.010437,0.019104,-0.0846558
0.0625,-0.125,-0.125,-0.32,0.16,9.52,-1,-2.25,9.6875,0.996155,0.010437,0.019104,-0.0846558
0.0625,-0.375,0,-0.29,0.19,9.57,-1,-2.25,9.6875,0.996155,0.010437,0.019104,-0.0846558
0,-0.125,0.0625,-0.29,0.2,9.59,-1,-2.25,9.6875,0.996155,0.010437,0.019104,-0.0846558
-0.125,0,0,-0.26,0.19,9.57,-1,-2.25,9.6875,0.996155,0.010437,0.019104,-0.0846558
-0.1875,0.1875,0,-0.28,0.16,9.55,-1,-2.25,9.6875,0.996155,0.010437,0.019104,-0.0846558
0.0625,0.25,0,-0.29,0.16,9.56,-1,-2.25,9.6875,0.996155,0.010437,0.019104,-0.0846558
0.25,0.3125,-0.0625,-0.31,0.19,9.55,-1,-2.25,9.6875,0.996155,0.010437,0.019104,-0.0846558
0.25,0.3125,0,-0.3,0.21,9.56,-1,-2.25,9.6875,0.996155,0.010437,0.019104,-0.0846558
0.1875,0.4375,-0.0625,-0.3,0.18,9.57,-1,-2.25,9.6875,0.996155,0.010437,0.019104,-0.0846558
0,0.1875,0,-0.3,0.19,9.56,-1,-2.25,9.6875,0.996155,0.010437,0.019104,-0.0846558
0.0625,0.25,-0.0625,-0.3,0.18,9.61,-1,-2.25,9.6875,0.996155,0.010437,0.019104,-0.0846558
-0.125,-0.1875,-0.0625,-0.29,0.18,9.55,-1,-2.25,9.6875,0.996155,0.010437,0.019104,-0.0846558
0,-0.375,0.125,-0.28,0.17,9.59,-1,-2.25,9.6875,0.996155,0.010437,0.019104,-0.0846558
0.0625,-0.0625,0,-0.3,0.16,9.58,-1,-2.25,9.6875,0.996155,0.010437,0.019104,-0.0846558
0,-0.125,-0.0625,-0.28,0.17,9.56,-1,-2.25,9.6875,0.996155,0.010437,0.019104,-0.0846558
-0.0625,0,0.0625,-0.27,0.19,9.6,-1,-2.25,9.6875,0.996155,0.010437,0.019104,-0.0846558
-0.0625,0.3125,0.0625,-0.29,0.15,9.56,-1,-2.25,9.6875,0.996155,0.010437,0.019104,-0.0846558
0,0.1875,-0.0625,-0.3,0.15,9.54,-1,-2.25,9.6875,0.996155,0.010437,0.019104,-0.0846558
0.0625,0.1875,-0.125,-0.3,0.19,9.55,-1,-2.25,9.6875,0.996155,0.010437,0.019104,-0.0846558
0.1875,0,0.0625,-0.3,0.2,9.6,-1,-2.25,9.6875,0.996155,0.010437,0.019104,-0.0846558
0,0.1875,0,-0.29,0.19,9.58,-1,-2.25,9.6875,0.996155,0.010437,0.019104,-0.0846558
-0.0625,-0.0625,-0.0625,-0.31,0.2,9.58,-1,-2.25,9.6875,0.996155,0.010437,0.019104,-0.0846558
-0.125,-0.0625,0.0625,-0.29,0.16,9.55,-1,-2.25,9.6875,0.996155,0.010437,0.019104,-0.0846558
-0.125,0.0625,0,-0.3,0.15,9.56,-1,-2.25,9.6875,0.996155,0.010437,0.019104,-0.0846558
-0.125,-0.3125,0.0625,-0.31,0.16,9.56,-1,-2.25,9.6875,0.996155,0.010437,0.019104,-0.0846558
0.0625,-0.125,-0.125,-0.29,0.18,9.55,-1,-2.25,9.6875,0.996155,0.010437,0.019104,-0.0846558
0.0625,-0.0625,0,-0.26,0.19,9.56,-1,-2.25,9.6875,0.996155,0.010437,0.019104,-0.0846558
0.125,-0.0625,0,-0.29,0.18,9.6,-1,-2.25,9.6875,0.996155,0.010437,0.019104,-0.0846558
0,0.125,0,-0.32,0.19,9.55,-1,-2.25,9.6875,0.996155,0.010437,0.019104,-0.0846558
0.0625,0.0625,-0.125,-0.3,0.2,9.58,-1,-2.25,9.6875,0.996155,0.010437,0.019104,-0.0846558
0,0,0.0625,-0.29,0.16,9.56,-1,-2.25,9.6875,0.996155,0.010437,0.019104,-0.0846558
0.0625,0,0.0625,-0.31,0.19,9.57,-1,-2.25,9.6875,0.996155,0.010437,0.019104,-0.0846558
0,-0.125,0.0625,-0.29,0.18,9.56,-1,-2.25,9.6875,0.996155,0.010437,0.019104,-0.0846558
0,-0.125,0.0625,-0.3,0.2,9.57,-1,-2.25,9.6875,0.996155,0.010437,0.019104,-0.0846558
0.0625,-0.125,0,-0.29,0.18,9.61,-1,-2.25,9.6875,0.996155,0.010437,0.019104,-0.0846558
-0.1875,-0.375,0,-0.29,0.17,9.54,-1,-2.25,9.6875,0.996155,0.010437,0.019104,-0.0846558
-0.125,0.125,-0.0625,-0.32,0.16,9.54,-1,-2.25,9.6875,0.996155,0.010437,0.019104,-0.0846558
-0.0625,0.125,-0.0625,-0.31,0.17,9.55,-1,-2.25,9.6875,0.996155,0.010437,0.019104,-0.0846558
0.0625,-0.1875,-0.0625,-0.3,0.18,9.59,-1,-2.25,9.6875,0.996155,0.010437,0.019104,-0.0846558
0.25,-0.0625,0.0625,-0.28,0.21,9.61,-1,-2.25,9.6875,0.996155,0.010437,0.019104,-0.0846558
0,-0.125,0.125,-0.28,0.2,9.56,-1,-2.25,9.6875,0.996155,0.010437,0.019104,-0.0846558
-0.0625,-0.0625,0,-0.3,0.17,9.53,-1,-2.25,9.6875,0.996155,0.010437,0.019104,-0.0846558
-0.0625,0.0625,0,-0.31,0.16,9.56,-1,-2.25,9.6875,0.996155,0.010437,0.019104,-0.0846558
-0.0625,0.125,-0.0625,-0.32,0.18,9.57,-1,-2.25,9.6875,0.996155,0.010437,0.019104,-0.0846558
0.0625,-0.0625,0.0625,-0.3,0.18,9.56,-1,-2.25,9.6875,0.996155,0.010437,0.019104,-0.0846558
0.1875,-0.125,-0.0625,-0.32,0.17,9.56,-1,-2.25,9.6875,0.996155,0.010437,0.019104,-0.0846558
0.1875,0.125,-0.0625,-0.27,0.22,9.54,-1,-2.25,9.6875,0.996155,0.010437,0.019104,-0.0846558
0.0625,0.0625,0,-0.29,0.18,9.58,-1,-2.25,9.6875,0.996155,0.010437,0.019104,-0.0846558
-0.125,0,0,-0.28,0.2,9.59,-1,-2.25,9.6875,0.996155,0.010437,0.019104,-0.0846558
-0.125,0,-0.0625,-0.3,0.18,9.58,-1,-2.25,9.6875,0.996155,0.010437,0.019104,-0.0846558
0,-0.25,-0.0625,-0.3,0.16,9.57,-1,-2.25,9.6875,0.996155,0.010437,0.019104,-0.0846558
0,0,-0.0625,-0.3,0.15,9.56,-1,-2.25,9.6875,0.996155,0.010437,0.019104,-0.0846558
0.0625,0.0625,0.125,-0.3,0.17,9.53,-1,-2.25,9.6875,0.996155,0.010437,0.019104,-0.0846558
-0.0625,0,0,-0.29,0.19,9.58,-1,-2.25,9.6875,0.996155,0.010437,0.019104,-0.0846558
0,0.125,-0.0625,-0.31,0.2,9.58,-1,-2.25,9.6875,0.996155,0.010437,0.019104,-0.0846558
0.0625,0.25,-0.0625,-0.31,0.17,9.58,-1,-2.25,9.6875,0.996155,0.010437,0.019104,-0.0846558
-0.0625,0,0,-0.3,0.19,9.58,-1,-2.25,9.6875,0.996155,0.010437,0.019104,-0.0846558
-0.1875,-0.125,0.125,-0.3,0.17,9.56,-1,-2.25,9.6875,0.996155,0.010437,0.019104,-0.0846558
0.0625,-0.0625,-0.0625,-0.31,0.17,9.6,-1,-2.25,9.6875,0.996155,0.010437,0.019104,-0.0846558
0.0625,-0.0625,0.125,-0.32,0.19,9.57,-1,-2.25,9.6875,0.996155,0.010437,0.019104,-0.0846558
0.0625,-0.0625,0,-0.3,0.18,9.6,-1,-2.25,9.6875,0.996155,0.010437,0.019104,-0.0846558
0.0625,-0.0625,0,-0.3,0.18,9.56,-1,-2.25,9.6875,0.996155,0.010437,0.019104,-0.0846558
0.125,-0.0625,-0.0625,-0.3,0.21,9.56,-1,-2.25,9.6875,0.996155,0.010437,0.019104,-0.0846558
0,-0.125,-0.0625,-0.3,0.19,9.6,-1,-2.25,9.6875,0.996155,0.010437,0.019104,-0.0846558
-0.0625,-0.125,-0.0625,-0.29,0.19,9.55,-1,-2.25,9.6875,0.996155,0.010437,0.019104,-0.0846558
-0.25,-0.0625,0,-0.29,0.18,9.56,-1,-2.25,9.6875,0.996155,0.010437,0.019104,-0.0846558
-0.0625,0.0625,0.0625,-0.3,0.17,9.54,-1,-2.25,9.6875,0.996155,0.010437,0.019104,-0.0846558
0.0625,0.1875,-0.0625,-0.29,0.17,9.57,-1,-2.25,9.6875,0.996155,0.010437,0.019104,-0.0846558
0.0625,0.125,-0.1875,-0.31,0.2,9.61,-1,-2.25,9.6875,0.996155,0.010437,0.019104,-0.0846558
-0.0625,0,0,-0.3,0.17,9.58,-1,-2.25,9.6875,0.996155,0.010437,0.019104,-0.0846558
0,0,0.125,-0.3,0.19,9.58,-1,-2.25,9.6875,0.996155,0.010437,0.019104,-0.0846558
0.0625,-0.125,-0.0625,-0.3,0.16,9.55,-1,-2.25,9.6875,0.996155,0.010437,0.019104,-0.0846558
-0.125,0.125,0,-0.31,0.2,9.53,-1,-2.25,9.6875,0.996155,0.010437,0.019104,-0.0846558
0.0625,0.125,-0.125,-0.29,0.16,9.62,-1,-2.25,9.6875,0.996155,0.010437,0.019104,-0.0846558
0,0.0625,-0.125,-0.3,0.19,9.55,-1,-2.25,9.6875,0.996155,0.010437,0.019104,-0.0846558
0.0625,-0.0625,0,-0.3,0.14,9.6,-1,-2.25,9.6875,0.996155,0.010437,0.019104,-0.0846558
-0.0625,0.125,-0.0625,-0.3,0.18,9.56,-1,-2.25,9.6875,0.996155,0.010437,0.019104,-0.0846558
-0.0625,0.125,0,-0.29,0.18,9.58,-1,-2.25,9.6875,0.996155,0.010437,0.019104,-0.0846558
0.0625,-0.0625,-0.0625,-0.28,0.18,9.58,-1,-2.25,9.6875,0.996155,0.010437,0.019104,-0.0846558
0.125,0,0,-0.3,0.18,9.57,-1,-2.25,9.6875,0.996155,0.010437,0.019104,-0.0846558
0,-0.0625,0.125,-0.3,0.16,9.53,-1,-2.25,9.6875,0.996155,0.010437,0.019104,-0.0846558
0.0625,0.0625,-0.0625,-0.29,0.19,9.57,-1,-2.25,9.6875,0.996155,0.010437,0.019104,-0.0846558
0.0625,0,0.0625,-0.31,0.2,9.55,-1,-2.25,9.6875,0.996155,0.010437,0.019104,-0.0846558
0.0625,-0.0625,0,-0.28,0.18,9.57,-1,-2.25,9.6875,0.996155,0.010437,0.019104,-0.0846558
0.0625,0.125,-0.125,-0.3,0.19,9.56,-1,-2.25,9.6875,0.996155,0.010437,0.019104,-0.0846558
0,0,-0.0625,-0.29,0.18,9.6,-1,-2.25,9.6875,0.996155,0.010437,0.019104,-0.0846558
-0.0625,-0.25,0.125,-0.31,0.18,9.56,-1,-2.25,9.6875,0.996155,0.010437,0.019104,-0.0846558
0,-0.125,-0.0625,-0.29,0.18,9.58,-1,-2.25,9.6875,0.996155,0.010437,0.019104,-0.0846558
0.0625,0.0625,0.0625,-0.3,0.18,9.58,-1,-2.25,9.6875,0.996155,0.010437,0.019104,-0.0846558
0.0625,-0.1875,-0.0625,-0.3,0.19,9.57,-1,-2.25,9.6875,0.996155,0.010437,0.019104,-0.0846558
0.0625,0.0625,0.125,-0.3,0.19,9.59,-1,-2.25,9.6875,0.996155,0.010437,0.019104,-0.0846558
0.0625,-0.1875,0,-0.31,0.17,9.56,-1,-2.25,9.6875,0.996155,0.010437,0.019104,-0.0846558
0.0625,-0.125,0.0625,-0.28,0.18,9.59,-1,-2.25,9.6875,0.996155,0.010437,0.019104,-0.0846558
-0.0625,0,-0.0625,-0.3,0.18,9.57,-1,-2.25,9.6875,0.996155,0.010437,0.019104,-0.0846558
0.0625,-0.1875,0,-0.29,0.18,9.6,-1,-2.25,9.6875,0.996155,0.010437,0.019104,-0.0846558
-0.1875,0,-0.0625,-0.29,0.16,9.54,-1,-2.25,9.6875,0.996155,0.010437,0.019104,-0.0846558
0.0625,0.0625,-0.0625,-0.27,0.2,9.56,-1,-2.25,9.6875,0.996155,0.010437,0.019104,-0.0846558
0.125,0.125,0,-0.29,0.19,9.57,-1,-2.25,9.6875,0.996155,0.010437,0.019104,-0.0846558
0,-0.0625,0,-0.29,0.18,9.58,-1,-2.25,9.6875,0.996155,0.010437,0.019104,-0.0846558
0,-0.125,0,-0.31,0.16,9.57,-1,-2.25,9.6875,0.996155,0.010437,0.019104,-0.0846558
-0.0625,0.1875,-0.125,-0.32,0.17,9.56,-1,-2.25,9.6875,0.996155,0.010437,0.019104,-0.0846558
0.125,0.1875,0,-0.29,0.19,9.56,-1,-2.25,9.6875,0.996155,0.010437,0.019104,-0.0846558
0.0625,-0.1875,0,-0.29,0.2,9.57,-1,-2.25,9.6875,0.996155,0.010437,0.019104,-0.0846558
0.0625,-0.0625,0.0625,-0.31,0.18,9.56,-1,-2.25,9.6875,0.996155,0.010437,0.019104,-0.0846558
-0.0625,-0.0625,0.0625,-0.3,0.17,9.57,-1,-2.25,9.6875,0.996155,0.010437,0.019104,-0.0846558
-0.0625,0.0625,-0.0625,-0.28,0.18,9.6,-1,-2.25,9.6875,0.996155,0.010437,0.019104,-0.0846558
-0.0625,0,0,-0.28,0.17,9.57,-1,-2.25,9.6875,0.996155,0.010437,0.019104,-0.0846558
-0.0625,0,0,-0.3,0.18,9.56,-1,-2.25,9.6875,0.996155,0.010437,0.019104,-0.0846558
0.125,0,0.0625,-0.29,0.19,9.57,-1,-2.25,9.6875,0.996155,0.010437,0.019104,-0.0846558
0.0625,0.0625,0.125,-0.3,0.19,9.6,-1,-2.25,9.6875,0.996155,0.010437,0.019104,-0.0846558
-0.125,0.125,-0.125,-0.29,0.17,9.55,-1,-2.25,9.6875,0.996155,0.010437,0.019104,-0.0846558
0,0.0625,0,-0.28,0.2,9.57,-1,-2.25,9.6875,0.996155,0.010437,0.019104,-0.0846558
-0.125,0.125,-0.0625,-0.28,0.17,9.55,-1,-2.25,9.6875,0.996155,0.010437,0.019104,-0.0846558
0,-0.0625,0,-0.29,0.18,9.57,-1,-2.25,9.6875,0.996155,0.010437,0.019104,-0.0846558
0.0625,0,0.125,-0.29,0.17,9.6,-1,-2.25,9.6875,0.996155,0.010437,0.019104,-0.0846558
-0.0625,0.0625,-0.0625,-0.29,0.2,9.53,-1,-2.25,9.6875,0.996155,0.010437,0.019104,-0.0846558
0,0.125,0,-0.28,0.21,9.57,-1,-2.25,9.6875,0.996155,0.010437,0.019104,-0.0846558
0.125,-0.125,0,-0.27,0.22,9.58,-1,-2.25,9.6875,0.996155,0.010437,0.019104,-0.0846558
-0.1875,-0.125,0,-0.31,0.17,9.56,-1,-2.25,9.6875,0.996155,0.010437,0.019104,-0.0846558
-0.25,-0.0625,0.125,-0.29,0.14,9.58,-1,-2.25,9.6875,0.996155,0.010437,0.019104,-0.0846558
-0.0625,0,0.0625,-0.27,0.16,9.54,-1,-2.25,9.6875,0.996155,0.010437,0.019104,-0.0846558
0.0625,-0.0625,0,-0.29,0.22,9.52,-1,-2.25,9.6875,0.996155,0.010437,0.019104,-0.0846558
0,0,0.125,-0.31,0.2,9.56,-1,-2.25,9.6875,0.996155,0.010437,0.019104,-0.0846558
0.1875,0.25,-0.0625,-0.31,0.15,9.65,-1,-2.25,9.6875,0.996155,0.010437,0.019104,-0.0846558
-0.125,0.25,0,-0.3,0.15,9.52,-1,-2.25,9.6875,0.996155,0.010437,0.019104,-0.0846558
-0.125,0.125,0.0625,-0.32,0.13,9.55,-1,-2.25,9.6875,0.996155,0.010437,0.019104,-0.0846558
0,0.1875,-0.125,-0.3,0.18,9.53,-1,-2.25,9.6875,0.996155,0.010437,0.019104,-0.0846558
0.375,-0.25,-0.0625,-0.32,0.22,9.57,-1,-2.25,9.6875,0.996155,0.010437,0.019104,-0.0846558
0.3125,-0.375,-0.0625,-0.29,0.22,9.65,-1,-2.25,9.6875,0.996155,0.010437,0.019104,-0.0846558
0,-0.625,0,-0.3,0.22,9.61,-1,-2.25,9.6875,0.996155,0.010437,0.019043,-0.0846558
-0.375,-0.4375,0.125,-0.28,0.15,9.61,-1,-2.25,9.6875,0.996155,0.010437,0.019043,-0.0846558
-0.4375,-0.125,-0.0625,-0.25,0.15,9.55,-1,-2.25,9.6875,0.996155,0.010437,0.019043,-0.0846558
-0.3125,0,-0.125,-0.3,0.16,9.57,-1,-2.25,9.6875,0.996155,0.010437,0.019043,-0.0846558
0.0625,0.125,0.0625,-0.26,0.18,9.58,-1,-2.25,9.6875,0.996155,0.010437,0.019043,-0.0846558
0.1875,0.3125,0,-0.32,0.18,9.57,-1,-2.25,9.6875,0.996155,0.010437,0.019043,-0.0846558
0.375,0.375,-0.125,-0.29,0.19,9.6,-1,-2.25,9.6875,0.996155,0.010437,0.019043,-0.0846558
0.0625,0.3125,-0.0625,-0.32,0.2,9.61,-1,-2.25,9.6875,0.996155,0.010437,0.019043,-0.0846558
-0.0625,0.375,0,-0.3,0.18,9.55,-1,-2.25,9.6875,0.996155,0.010437,0.019043,-0.0846558
-0.25,0,0,-0.32,0.14,9.53,-1,-2.25,9.6875,0.996155,0.010437,0.019043,-0.0846558
-0.125,-0.25,0.0625,-0.32,0.12,9.56,-1,-2.25,9.6875,0.996155,0.010437,0.019043,-0.0846558
0,-0.125,-0.0625,-0.3,0.17,9.61,-1,-2.25,9.6875,0.996155,0.010437,0.019043,-0.0846558
0.25,-0.1875,0,-0.29,0.2,9.54,-1,-2.25,9.6875,0.996155,0.010437,0.019043,-0.0846558
0.0625,-0.25,-0.125,-0.28,0.19,9.61,-1,-2.25,9.6875,0.996155,0.010437,0.019043,-0.0846558
-0.1875,-0.25,0.0625,-0.3,0.16,9.56,-1,-2.25,9.6875,0.996155,0.010437,0.019043,-0.0846558
-0.1875,0,0.0625,-0.3,0.16,9.59,-1,-2.25,9.6875,0.996155,0.010437,0.019043,-0.0846558
0.125,0.0625,0.0625,-0.3,0.16,9.57,-1,-2.25,9.6875,0.996155,0.010437,0.019043,-0.0846558
0.1875,0.125,0.0625,-0.3,0.18,9.54,-1,-2.25,9.6875,0.996155,0.010437,0.019043,-0.0846558
0.0625,0.1875,-0.0625,-0.3,0.2,9.58,-1,-2.25,9.6875,0.996155,0.010437,0.019043,-0.0846558
0.0625,0.3125,0.0625,-0.3,0.17,9.56,-1,-2.25,9.6875,0.996155,0.010437,0.019043,-0.0846558
0,0.3125,-0.0625,-0.31,0.16,9.56,-1,-2.25,9.6875,0.996155,0.010437,0.019043,-0.0846558
0.0625,0,-0.0625,-0.31,0.17,9.58,-1,-2.25,9.6875,0.996155,0.010437,0.019043,-0.0846558
-0.125,-0.0625,0.125,-0.28,0.2,9.57,-1,-2.25,9.6875,0.996155,0.010437,0.019043,-0.0846558
-0.0625,-0.1875,0.0625,-0.28,0.18,9.59,-1,-2.25,9.6875,0.996155,0.010437,0.019043,-0.0846558
0.0625,-0.25,0,-0.27,0.18,9.58,-1,-2.25,9.6875,0.996155,0.010437,0.019043,-0.0846558
-0.0625,-0.0625,0,-0.28,0.17,9.56,-1,-2.25,9.6875,0.996155,0.010437,0.019043,-0.0846558
0,0,0,-0.29,0.17,9.55,-1,-2.25,9.6875,0.996155,0.010437,0.019043,-0.0846558
0,-0.0625,0,-0.29,0.17,9.56,-1,-2.25,9.6875,0.996155,0.010437,0.019043,-0.0846558
0.125,0.0625,0,-0.28,0.19,9.6,-1,-2.25,9.6875,0.996155,0.010437,0.019043,-0.0846558
0.0625,0.0625,0,-0.32,0.18,9.57,-1,-2.25,9.6875,0.996155,0.010437,0.019043,-0.0846558
-0.0625,0.25,0.0625,-0.31,0.16,9.59,-1,-2.25,9.6875,0.996155,0.010437,0.019043,-0.0846558
0,0.375,-0.0625,-0.31,0.18,9.55,-1,-2.25,9.6875,0.996155,0.010437,0.019043,-0.0846558
0,0.25,-0.0625,-0.31,0.19,9.54,-1,-2.25,9.6875,0.996155,0.010437,0.019043,-0.0846558
0.0625,0.0625,-0.0625,-0.3,0.2,9.59,-1,-2.25,9.6875,0.996155,0.010437,0.019043,-0.0846558
-0.0625,-0.3125,0.125,-0.33,0.22,9.57,-1,-2.25,9.6875,0.996155,0.010437,0.019043,-0.0846558
-0.0625,-0.125,-0.0625,-0.28,0.19,9.59,-1,-2.25,9.6875,0.996155,0.010437,0.019043,-0.0846558
0.0625,-0.1875,0,-0.29,0.19,9.61,-1,-2.25,9.6875,0.996155,0.010437,0.019043,-0.0846558
-0.0625,-0.5,0.0625,-0.29,0.16,9.53,-1,-2.25,9.6875,0.996155,0.010437,0.019043,-0.0846558
-0.1875,-0.125,0.0625,-0.29,0.15,9.53,-1,-2.25,9.6875,0.996155,0.010437,0.019043,-0.0846558
-0.0625,0.0625,0,-0.29,0.17,9.55,-1,-2.25,9.6875,0.996155,0.010437,0.019043,-0.0846558
0,0.1875,0,-0.29,0.17,9.6,-1,-2.25,9.6875,0.996155,0.010437,0.019043,-0.0846558
0.125,0,-0.0625,-0.31,0.22,9.56,-1,-2.25,9.6875,0.996155,0.010437,0.019043,-0.0846558
0.125,0.4375,-0.125,-0.29,0.18,9.57,-1,-2.25,9.6875,0.996155,0.010437,0.019043,-0.0846558
0,0.25,0.125,-0.32,0.18,9.56,-1,-2.25,9.6875,0.996155,0.010437,0.019043,-0.0846558
-0.0625,0.0625,-0.0625,-0.32,0.17,9.54,-1,-2.25,9.6875,0.996155,0.010437,0.019043,-0.0846558
0,-0.125,-0.0625,-0.29,0.2,9.6,-1,-2.25,9.6875,0.996155,0.010437,0.019043,-0.0846558
0.0625,-0.25,0,-0.3,0.2,9.6,-1,-2.25,9.6875,0.996155,0.010437,0.019043,-0.0846558
0.0625,-0.0625,-0.125,-0.29,0.21,9.56,-1,-2.25,9.6875,0.996155,0.010437,0.019043,-0.0846558
-0.0625,-0.375,0.125,-0.28,0.19,9.56,-1,-2.25,9.6875,0.996155,0.010437,0.019043,-0.0846558
0,-0.3125,0,-0.28,0.17,9.58,-1,-2.25,9.6875,0.996155,0.010437,0.019043,-0.0846558
0,-0.0625,0,-0.28,0.17,9.59,-1,-2.25,9.6875,0.996155,0.010437,0.019043,-0.0846558
-0.0625,0.25,0,-0.31,0.16,9.59,-1,-2.25,9.6875,0.996155,0.010437,0.019043,-0.0846558
-0.0625,0.3125,0.0625,-0.33,0.13,9.54,-1,-2.25,9.6875,0.996155,0.010437,0.019043,-0.0846558
-0.0625,0.375,-0.0625,-0.31,0.18,9.52,-1,-2.25,9.6875,0.996155,0.010437,0.019043,-0.0846558
0.0625,0.1875,-0.0625,-0.3,0.2,9.58,-1,-2.25,9.6875,0.996155,0.010437,0.019043,-0.0846558
0.3125,0.1875,-0.0625,-0.32,0.22,9.62,-1,-2.25,9.6875,0.996155,0.010437,0.019043,-0.0846558
0,0.125,0.0625,-0.3,0.18,9.53,-1,-2.25,9.6875,0.996155,0.010437,0.019043,-0.0846558
-0.125,-0.125,-0.0625,-0.3,0.17,9.52,-1,-2.25,9.6875,0.996155,0.010437,0.019043,-0.0846558
-0.125,-0.125,0,-0.29,0.16,9.56,-1,-2.25,9.6875,0.996155,0.010437,0.019043,-0.0846558
-0.0625,-0.4375,0,-0.31,0.19,9.59,-1,-2.25,9.6875,0.996155,0.010437,0.019043,-0.0846558
0,-0.375,0,-0.27,0.19,9.58,-1,-2.25,9.6875,0.996155,0.010437,0.019043,-0.0846558
-0.0625,-0.5,0,-0.26,0.2,9.57,-1,-2.25,9.6875,0.996155,0.010437,0.019043,-0.0846558
-0.0625,-0.1875,0,-0.3,0.16,9.58,-1,-2.25,9.6875,0.996155,0.010437,0.019043,-0.0846558
0,0.0625,-0.125,-0.29,0.17,9.56,-1,-2.25,9.6875,0.996155,0.010437,0.019043,-0.0846558
0,0.125,0,-0.27,0.17,9.55,-1,-2.25,9.6875,0.996155,0.010437,0.019043,-0.0846558
-0.125,0.5625,0,-0.31,0.16,9.55,-1,-2.25,9.6875,0.996155,0.010437,0.019043,-0.0846558
-0.1875,0.3125,0,-0.33,0.14,9.54,-1,-2.25,9.6875,0.996155,0.010437,0.019043,-0.0846558
0.1875,0.3125,-0.0625,-0.31,0.18,9.54,-1,-2.25,9.6875,0.996155,0.010437,0.019043,-0.0846558
0.1875,0.125,0,-0.3,0.17,9.57,-1,-2.25,9.6875,0.996155,0.010437,0.019043,-0.0846558
-0.125,0,0.125,-0.3,0.19,9.6,-1,-2.25,9.6875,0.996155,0.010437,0.019043,-0.0846558
-0.125,-0.5,-0.0625,-0.3,0.18,9.56,-1,-2.25,9.6875,0.996155,0.010437,0.019043,-0.0846558
-0.125,-0.5,-0.0625,-0.28,0.18,9.57,-1,-2.25,9.6875,0.996155,0.010437,0.019043,-0.0846558
-0.0625,-0.5625,-0.0625,-0.27,0.19,9.56,-1,-2.25,9.6875,0.996155,0.010437,0.019043,-0.0846558
0,-0.625,0,-0.27,0.19,9.58,-1,-2.25,9.6875,0.996155,0.010437,0.0189819,-0.0846558
-0.1875,0.0625,0,-0.29,0.17,9.62,-1,-2.25,9.6875,0.996155,0.010437,0.0189819,-0.0846558
-0.125,0.25,0,-0.28,0.17,9.56,-1,-2.25,9.6875,0.996155,0.010437,0.0189819,-0.0846558
0.125,0.5625,0.0625,-0.3,0.17,9.57,-1,-2.25,9.6875,0.996155,0.010437,0.0189819,-0.0846558
0.125,0.4375,0.0625,-0.3,0.18,9.56,-1,-2.25,9.6875,0.996155,0.010437,0.0189819,-0.0846558
0.0625,0.375,0.0625,-0.31,0.18,9.56,-1,-2.25,9.6875,0.996155,0.010437,0.0189819,-0.0846558
0.0625,0.5,0.0625,-0.32,0.18,9.58,-1,-2.25,9.6875,0.996155,0.010437,0.0189819,-0.0846558
0.0625,0.125,0.0625,-0.31,0.17,9.57,-1,-2.25,9.6875,0.996155,0.010437,0.0189819,-0.0846558
0.0625,0,-0.0625,-0.33,0.17,9.58,-1,-2.25,9.6875,0.996155,0.010437,0.0189819,-0.0846558
0,-0.3125,-0.0625,-0.31,0.19,9.59,-1,-2.25,9.6875,0.996155,0.010437,0.0189819,-0.0846558
0,-0.375,0.0625,-0.28,0.18,9.57,-1,-2.25,9.6875,0.996155,0.010437,0.0189819,-0.0846558
-0.0625,-0.4375,0,-0.3,0.19,9.59,-1,-2.25,9.6875,0.996155,0.010437,0.0189819,-0.0846558
-0.125,-0.1875,-0.0625,-0.29,0.15,9.57,-1,-2.25,9.6875,0.996155,0.010437,0.0189819,-0.0846558
-0.0625,-0.0625,0,-0.27,0.17,9.56,-1,-2.25,9.6875,0.996155,0.010437,0.0189819,-0.0846558
0,0.0625,0,-0.28,0.18,9.55,-1,-2.25,9.6875,0.996155,0.010437,0.0189819,-0.0846558
0.0625,0.25,-0.125,-0.29,0.17,9.52,-1,-2.25,9.6875,0.996155,0.010437,0.0189819,-0.0846558
0.1875,0.375,-0.0625,-0.29,0.17,9.61,-1,-2.25,9.6875,0.996155,0.010437,0.0189819,-0.0846558
0.125,0.125,-0.0625,-0.32,0.17,9.57,-1,-2.25,9.6875,0.996155,0.010437,0.0189819,-0.0846558
0.125,0.125,0,-0.29,0.2,9.57,-1,-2.25,9.6875,0.996155,0.010437,0.0189819,-0.0846558
0,0,-0.0625,-0.28,0.18,9.56,-1,-2.25,9.6875,0.996155,0.010437,0.0189819,-0.0846558
-0.0625,-0.0625,0,-0.32,0.18,9.54,-1,-2.25,9.6875,0.996155,0.010437,0.0189819,-0.0846558
-0.125,-0.125,-0.125,-0.31,0.16,9.57,-1,-2.25,9.6875,0.996155,0.010437,0.0189819,-0.0846558
-0.125,-0.3125,-0.125,-0.31,0.18,9.56,-1,-2.25,9.6875,0.996155,0.010437,0.0189819,-0.0846558
0.0625,-0.125,0,-0.29,0.19,9.58,-1,-2.25,9.6875,0.996155,0.010437,0.0189819,-0.0846558
0.125,-0.375,0.125,-0.3,0.18,9.56,-1,-2.25,9.6875,0.996155,0.010437,0.0189819,-0.0846558
-0.0625,-0.125,0.125,-0.28,0.18,9.57,-1,-2.25,9.6875,0.996155,0.010437,0.0189819,-0.0846558
-0.125,-0.1875,0.0625,-0.28,0.17,9.58,-1,-2.25,9.6875,0.996155,0.010437,0.0189819,-0.0846558
-0.0625,-0.0625,0.0625,-0.29,0.19,9.56,-1,-2.25,9.6875,0.996155,0.010437,0.0189819,-0.0846558
0.0625,-0.0625,-0.0625,-0.27,0.41,9.73,-1,-2.25,9.6875,0.996155,0.010437,0.0189819,-0.0846558
0,-2.375,2,0.04,0.94,10.25,-0.9375,-2.1875,9.6875,0.996216,0.0102539,0.0187988,-0.0844727
-2.125,-9.8125,9.0625,-0.22,1.07,10.29,-0.875,-2.125,9.5625,0.996277,0.00939941,0.0180054,-0.0836792
-9.4375,-23.5,16.0625,-0.54,0.96,10.18,-0.6875,-1.875,9.4375,0.99646,0.0078125,0.0161743,-0.0823364
-17.25,-23.5,16.0625,0.2,0.76,10.07,-0.5,-1.5,9.1875,0.996643,0.00585938,0.0130615,-0.0804443
-20.5,-37.9375,22.1875,0.23,0.36,10.55,-0.3125,-1.0625,8.875,0.996887,0.00354004,0.00915527,-0.0778809
-24.0625,-53.25,41.3125,2.44,-0.19,9.84,0,-0.5,8.5,0.997192,0.000732422,0.00488281,-0.0744019
-29.5625,-52.5,61.875,3.66,-0.6,9.06,0.1875,0,7.875,0.99762,-0.0020752,0.000610352,-0.0691528
-29.4375,-37.5,81.8125,3.47,-0.81,7.87,0.4375,0.25,7.125,0.998047,-0.00408936,-0.00238037,-0.0622559
-21.3125,-37.5,81.8125,3.49,-0.9,7.96,0.5,0.5,6.1875,0.998535,-0.00494385,-0.00421143,-0.0540161
-8.6875,-22.0625,97.8125,2.96,-0.89,7.85,0.4375,0.5,5.0625,0.998962,-0.00439453,-0.00445557,-0.0446167
6.875,19.375,119.562,2.29,-1.31,8.3,0.25,0.3125,3.9375,0.99939,-0.00250244,-0.00280762,-0.0344849
22.6875,40.9375,125.688,1.54,-1.37,9.56,-0.0625,-0.0625,2.6875,0.999695,0.000610352,0.000549316,-0.0239258
35.75,66.4375,127.562,0.1,-1.23,10.14,-0.4375,-0.6875,1.5,0.999878,0.00421143,0.00604248,-0.0131226
40.5,66.4375,127.562,-11.17,1.13,13.22,-0.75,-1.4375,0.5,0.999878,0.00695801,0.0128784,-0.00482178
30.75,81.375,26.1875,-8.48,1.45,7.58,-0.875,-1.9375,0.25,0.999817,0.00787354,0.0171509,-0.00262451
10.6875,18.125,-25.25,-6.11,1.97,8.68,-1,-2.125,0.5,0.999756,0.00897217,0.0187378,-0.00476074
12.875,-12.25,-54.3125,-0.86,1.51,10.19,-1.125,-2,1.0625,0.999756,0.0101929,0.0177002,-0.00939941
15.4375,-22.75,-49.25,2.39,0.86,11.35,-1.125,-1.8125,1.5,0.999756,0.010376,0.0158081,-0.0135498
3.5,-22.75,-24.5,2.37,-0.58,10.08,-1.0625,-1.6875,1.75,0.999695,0.00964355,0.0148926,-0.015625
-8.1875,-11.625,-3,0.51,-0.9,9.27,-0.9375,-1.6875,1.8125,0.999756,0.00860596,0.0148926,-0.0158691
-12.375,1.5,4.25,-0.49,-1,9.09,-0.8125,-1.6875,1.75,0.999756,0.00769043,0.0150146,-0.0155029
-10.75,0.1875,4.0625,-0.52,-0.6,9.35,-0.75,-1.6875,1.6875,0.999756,0.00701904,0.0150757,-0.0151367
-7.8125,-0.375,3.4375,-0.57,0.15,8.44,-0.75,-1.6875,1.6875,0.999756,0.00701904,0.0150757,-0.0148315
0,-0.375,4.125,-0.8,0.8,10.45,-0.8125,-1.625,1.625,0.999756,0.00756836,0.0145264,-0.0145264
6.1875,-6.125,5.4375,-0.6,0.91,10.84,-0.8125,-1.5,1.5625,0.999756,0.00738525,0.0133667,-0.0140381
-1.875,-19.625,9.25,0.11,-0.33,8.72,-0.6875,-1.3125,1.5,0.999817,0.00646973,0.0117188,-0.0132446
-10.9375,-23.4375,14.625,-0.22,-0.67,8.55,-0.625,-1.0625,1.375,0.999878,0.00585938,0.00970459,-0.0120239
-6.6875,-23.6875,17.375,0,-0.9,9.55,-0.625,-0.875,1.1875,0.999878,0.00592041,0.00769043,-0.0105591
1.0625,-23.6875,20.3125,0.45,-1.21,10.23,-0.6875,-0.625,1,0.999939,0.00610352,0.00592041,-0.0088501
1.9375,-21.5,20.3125,-0.87,-1.2,9.9,-0.625,-0.4375,0.75,0.999939,0.00598145,0.00427246,-0.00689697
-1.3125,-22.875,21.0625,-1.83,-1.81,9.27,-0.625,-0.25,0.5625,0.999939,0.0057373,0.00238037,-0.00512695
-2.625,-31.9375,14.75,-1.73,-2.24,8.96,-0.5625,0,0.4375,1,0.00524902,-0.000366211,-0.00390625
-5.6875,-30,12.4375,-0.58,-0.41,10.31,-0.4375,0.3125,0.3125,1,0.00402832,-0.00286865,-0.00286865
-14.75,-30,12.4375,-0.66,-0.34,9.98,-0.3125,0.4375,0.1875,1,0.00280762,-0.00421143,-0.00189209
-13.875,-15.4375,11.75,0.56,-0.89,8.89,-0.125,0.5625,0.0625,1,0.00158691,-0.00494385,-0.000976562
-14.625,8.0625,20.0625,1.26,-0.41,8.92,0,0.4375,359.875,1,0.000305176,-0.00427246,0.000732422
-14.6875,19.1875,29.9375,0.14,-1.02,7.94,0,0.25,359.625,1,0.000366211,-0.00262451,0.00323486
0.625,14.8125,36.9375,-0.56,-0.12,9.51,-0.0625,0.125,359.25,1,0.000915527,-0.00140381,0.00634766
6.5,14.8125,36.9375,-1.2,0.13,10.3,-0.1875,0.0625,358.875,0.999939,0.00183105,-0.000854492,0.00952148
11.1875,6.375,37.1875,-0.86,0.36,10.64,-0.1875,0.0625,358.562,0.999939,0.00219727,-0.000732422,0.012207
3.875,3.875,27.25,-0.51,-0.24,9.49,-0.1875,0,358.312,0.999878,0.00219727,-0.000427246,0.0145264
-0.3125,5.5625,25.5,-0.7,-0.29,9.25,-0.1875,0,358.062,0.999878,0.00201416,6.10352e-05,0.0167236
-2,1.125,26,-0.47,-0.3,9.29,-0.1875,0,357.812,0.999817,0.00201416,0.00012207,0.0189209
-0.0625,1.125,26,0.03,-0.12,9.73,-0.1875,0,357.5,0.999756,0.00201416,-0.000183105,0.0214844
0.3125,-3.9375,30.625,0.25,-0.05,9.51,-0.1875,0.0625,357.125,0.999695,0.00201416,-0.000793457,0.0247803
-0.1875,-9.4375,48.3125,0.38,-0.11,9.52,-0.1875,0.1875,356.688,0.999573,0.00195312,-0.00164795,0.0288696
-0.8125,-11.625,58.25,0.17,-0.11,9.46,-0.1875,0.25,356.125,0.999451,0.00195312,-0.00262451,0.0337524
-0.0625,-13.8125,64.5,-0.3,0.04,9.66,-0.1875,0.4375,355.5,0.999207,0.00201416,-0.00378418,0.0391846
0,-13.8125,64.5,-0.81,0.29,10,-0.1875,0.5625,354.875,0.998962,0.00189209,-0.00524902,0.0446777
-1.625,-16.8125,64.75,-0.81,0.22,9.77,-0.125,0.75,354.25,0.998718,0.00152588,-0.00683594,0.0498047
-4.6875,-18.0625,55,-1.34,0.19,9.73,-0.0625,0.9375,353.75,0.998474,0.0010376,-0.00836182,0.0544434
-6.5625,-18.9375,47.25,-1.01,0.16,9.79,0,1.125,353.25,0.99823,0.000427246,-0.0100098,0.0584717
-7.5,-22,42.5,-0.29,0.38,9.38,0.0625,1.3125,352.875,0.997986,-0.000183105,-0.0119019,0.0620117
-8.375,-22,42.5,-0.29,0.43,9.36,0.125,1.5625,352.438,0.997742,-0.000732422,-0.0141602,0.0654297
-7.375,-26.5,40.6875,-0.33,0.49,9.42,0.25,1.875,352.062,0.997498,-0.0010376,-0.0169067,0.0687256
-5.3125,-33.5,38.8125,0.11,0.49,9.44,0.25,2.25,351.688,0.997192,-0.0012207,-0.0197754,0.0720215
-3.625,-31.8125,38.125,0.34,0.46,10.16,0.3125,2.5,351.312,0.996887,-0.00134277,-0.0224609,0.0752563
-3.1875,-33.8125,38.5625,0.71,0.5,10.29,0.375,2.875,350.938,0.996582,-0.00170898,-0.0253906,0.0784912
-6.25,-33.8125,38.5625,0.71,0.57,9.88,0.5,3.25,350.562,0.996216,-0.00244141,-0.0289307,0.0819702
-10.6875,-41.25,41.3125,1.11,1.18,9.64,0.625,3.75,350.188,0.995789,-0.00286865,-0.0335693,0.0853271
-8.375,-75.4375,34,1.28,0.16,8.99,0.75,4.5,349.812,0.9953,-0.00299072,-0.039978,0.0881958
-7.0625,-87.0625,27.8125,1.73,0.5,9.12,0.75,5.3125,349.562,0.994751,-0.00256348,-0.0473022,0.0905762
-1.4375,-103.438,31.5625,1.4,0.27,9.35,0.75,6.3125,349.25,0.99408,-0.00183105,-0.0559692,0.0932617
1.0625,-103.438,31.5625,1.4,0.4,9.85,0.8125,7.5,348.875,0.993164,-0.0010376,-0.06604,0.0963135
-0.25,-119.812,36.6875,0.79,0.51,9.68,0.875,8.75,348.5,0.992065,-0.000183105,-0.0770874,0.0994873
-0.3125,-140.188,37.0625,1.6,0.37,9.84,0.9375,10.125,348.125,0.990723,0.000732422,-0.0888062,0.1026
0.0625,-141.625,40.3125,2.21,0.09,10.34,1.0625,11.5,347.75,0.989258,0.00146484,-0.100708,0.105896
-2.75,-132.312,47.625,1.99,-0.41,10.34,1.25,12.75,347.312,0.987671,0.00152588,-0.111816,0.109802
-8.375,-132.312,47.625,1.99,-0.41,9.58,1.5,13.875,346.75,0.985962,0.000793457,-0.121826,0.114136
-16,-118.25,53.875,2.48,0.02,8.78,1.8125,14.8125,346.188,0.984375,-0.000305176,-0.13031,0.118713
-17.5625,-86.5625,55.3125,2.06,0.15,8.35,2.125,15.625,345.688,0.982788,-0.00115967,-0.137634,0.123169
-13.125,-78.5625,49.0625,2.03,-0.21,8.47,2.3125,16.375,345.188,0.981323,-0.00140381,-0.144226,0.127136
-6,-71.75,41.0625,2.17,-0.22,8.53,2.4375,17.0625,344.812,0.97998,-0.00115967,-0.150146,0.130554
0.3125,-71.75,41.0625,2.17,-0.22,8.78,2.5,17.6875,344.438,0.97876,-0.000488281,-0.155518,0.133545
4.5,-65.5,35,2.4,-0.32,8.53,2.5625,18.25,344.125,0.9776,0.000427246,-0.160278,0.13623
7.8125,-52.625,31.3125,3.39,-0.55,8.82,2.5625,18.75,343.75,0.976562,0.00152588,-0.16449,0.138977
11.3125,-50.0625,34.0625,3.94,-0.47,9.3,2.5625,19.1875,343.438,0.975403,0.00280762,-0.168457,0.141968
14.5625,-46.375,38.3125,3.7,-0.79,8.86,2.5,19.625,343,0.974304,0.00427246,-0.172058,0.145386
17.125,-46.375,38.3125,3.7,-0.79,8.86,2.4375,20,342.562,0.973267,0.00585938,-0.174927,0.148865
20.5625,-37.6875,39.375,3.8,-0.72,9.9,2.4375,20.1875,342.125,0.972351,0.0067749,-0.176575,0.152527
15.625,-13.5,44.75,3.33,-0.48,9.11,2.5625,20.3125,341.688,0.971558,0.0067749,-0.177612,0.15625
5.4375,-9.5625,42.75,2.99,-0.64,8.19,2.6875,20.375,341.25,0.970886,0.00665283,-0.178406,0.159851
4.8125,-9.5,38,3.33,-0.45,8.97,2.6875,20.4375,340.875,0.970215,0.00701904,-0.179016,0.163086
10.375,-9.5,38,3.33,-0.45,8.97,2.6875,20.5,340.5,0.969543,0.00769043,-0.17981,0.166199
12.3125,-10.9375,35.375,3.06,-0.39,9.08,2.75,20.625,340.188,0.968872,0.00817871,-0.180481,0.169189
11.125,-6.3125,33.5625,3.2,-0.48,8.63,2.75,20.625,339.812,0.968323,0.00872803,-0.180847,0.172058
11.5,-5,36,3.62,-0.24,8.54,2.75,20.6875,339.438,0.967712,0.00952148,-0.18103,0.175293
15.5,-8.25,40.4375,3.61,-0.19,8.57,2.6875,20.75,339,0.966919,0.0106812,-0.181458,0.178894
20.3125,-8.25,40.4375,3.61,-0.19,8.57,2.625,20.875,338.5,0.966003,0.012207,-0.182312,0.182983
24.6875,-14.75,45.8125,3.47,-0.02,8.8,2.5625,21.0625,338,0.964844,0.0140381,-0.183777,0.1875
27.3125,-28.75,57.4375,3.67,0,9.2,2.5,21.3125,337.375,0.96344,0.0158691,-0.18573,0.192566
28.3125,-36.625,66.25,3.68,0,9.24,2.5,21.625,336.688,0.961731,0.0177002,-0.188354,0.198364
27.375,-48.625,75.5625,3.58,0.08,8.92,2.5,22.0625,335.875,0.959595,0.0194092,-0.191956,0.204834
26.125,-48.625,75.5625,3.58,0.08,8.92,2.625,22.625,335,0.957092,0.0213623,-0.196716,0.211853
26.8125,-63.1875,82.125,3.27,0.47,8.85,2.6875,23.375,334.125,0.954163,0.0236206,-0.202576,0.218933
28.0625,-76.375,83,3.32,0.98,9.48,2.8125,24.125,333.25,0.95105,0.026001,-0.209106,0.225952
27.625,-86,80.1875,3.28,1.41,9.33,2.9375,25.0625,332.375,0.947754,0.0281982,-0.216614,0.232544
21.875,-99.625,76.875,3.55,1.06,9.02,3.1875,25.9375,331.562,0.944336,0.0300903,-0.224426,0.23877
17.25,-99.625,76.875,3.55,1.06,9.02,3.4375,26.875,330.812,0.940857,0.0319214,-0.232056,0.244751
15.75,-97.125,74.625,3.78,0.81,8.92,3.6875,27.75,330,0.937378,0.0336914,-0.239502,0.250793
16,-95.5625,79.625,4.49,0.52,8.27,3.9375,28.625,329.188,0.933594,0.0355835,-0.246826,0.257202
19.25,-95.5,85.25,4.59,0.37,8.04,4.1875,29.4375,328.25,0.929626,0.0379028,-0.254028,0.26416
25.75,-95,89.1875,4.73,0.33,7.92,4.375,30.3125,327.25,0.925476,0.0407715,-0.261047,0.271545
33.5625,-95.0625,89.1875,4.73,0.33,7.92,4.5625,31.1875,326.25,0.921021,0.0440674,-0.267883,0.279358
40.4375,-96,93,4.78,0.56,8.01,4.75,32.0625,325.125,0.91626,0.0477905,-0.274841,0.287415
45.1875,-99,95.8125,5.02,0.3,8.07,4.9375,33,324.062,0.911255,0.0517578,-0.282166,0.295471
47.1875,-104.25,96.0625,5.5,0.29,7.93,5.125,33.9375,322.938,0.906006,0.0558472,-0.289612,0.303528
47.875,-107.438,97.6875,5.76,0.3,7.69,5.375,34.875,321.812,0.900574,0.0599365,-0.297058,0.311646
49.25,-107.688,97.6875,5.76,0.3,7.69,5.625,35.8125,320.625,0.894958,0.0641479,-0.304138,0.320007
52.0625,-105,99.5,6.22,0.2,7.01,5.8125,36.625,319.438,0.889465,0.0686646,-0.310303,0.328491
59,-95.6875,97.1875,6.18,0.55,7.23,5.9375,37.3125,318.25,0.884155,0.0734253,-0.315125,0.337036
67.1875,-81.9375,91.3125,6,0.81,7.62,5.9375,37.875,317.062,0.879272,0.0782471,-0.318481,0.345398
72.5,-65.125,83.75,6.21,0.91,7.95,5.9375,38.25,316,0.875,0.0828247,-0.320496,0.35321
72.5625,-48.3125,83.75,6.21,0.91,7.95,5.875,38.5,315,0.871216,0.086792,-0.321533,0.360596
68.75,-34.25,78.375,6.19,0.7,8.2,5.875,38.6875,314.062,0.867798,0.0900879,-0.322021,0.367676
61.8125,-25.1875,75.3125,6.44,0.39,7.92,6,38.8125,313.125,0.86438,0.0926514,-0.322632,0.374451
53.125,-23,77.1875,6.44,0.17,7.16,6.125,39,312.188,0.86084,0.0946655,-0.323608,0.381104
45.8125,-25.375,78.875,6.45,0.03,6.78,6.375,39.1875,311.312,0.857056,0.0965576,-0.325195,0.387695
41.75,-31.9375,78.875,6.45,0.03,6.78,6.625,39.1875,311.312,0.852966,0.0988159,-0.327515,0.394287
42,-42.25,79.5625,6.4,-0.1,6.4,6.875,39.9375,310.375,0.848328,0.101746,-0.330627,0.400818
46.0625,-54.9375,78.5,6.55,-0.3,6.17,7.0625,40.5,308.438,0.843323,0.105591,-0.334351,0.407288
52.375,-67.4375,77.75,6.73,-0.32,6.38,7.25,41.1875,307.438,0.83783,0.110229,-0.338745,0.413696
57.25,-79.75,77.6875,6.89,-0.31,6.47,7.4375,41.9375,306.375,0.831909,0.115356,-0.343811,0.420044
58.875,-91.0625,77.6875,6.89,-0.31,6.47,7.6875,42.8125,305.375,0.825562,0.120728,-0.349548,0.426208
58.25,-100.75,78.125,6.61,-0.32,6.65,8,43.75,304.312,0.818909,0.126343,-0.356018,0.432068
55.625,-110.688,76.125,7.18,-0.37,6.26,8.375,44.8125,303.312,0.81189,0.13208,-0.363098,0.437622
53.25,-119.312,76,7.32,-0.41,5.86,8.75,45.875,302.312,0.804688,0.137878,-0.3703,0.443054
53.625,-121.938,75.4375,7.47,-0.68,5.49,9.125,46.875,301.25,0.797363,0.143982,-0.377075,0.448608
58.375,-119.438,75.4375,7.47,-0.68,5.49,9.4375,47.875,300.188,0.7901,0.150391,-0.383179,0.454224
65.875,-114.375,73.625,7.59,-0.97,5.22,9.6875,48.8125,299.062,0.782776,0.157227,-0.388428,0.460022
74.6875,-108.875,70,7.38,-1.17,5.22,9.875,49.6875,297.938,0.775391,0.164551,-0.393127,0.465942
83.0625,-106.375,65.8125,7.27,-0.94,5.43,10,50.625,296.875,0.767883,0.172424,-0.397705,0.471619
88.375,-109.312,61.125,8.7,-0.56,6.65,10.0625,51.625,295.75,0.760254,0.180725,-0.402405,0.476929
90.125,-114,61.125,8.7,-0.56,6.65,10.3125,52.625,295.75,0.75238,0.188721,-0.407227,0.482117
85.9375,-114.625,63.8125,7.29,0,6.26,10.625,53.5,294.688,0.74469,0.195923,-0.411926,0.487244
79.5625,-109.062,66.125,8.06,-1.22,5.07,11,54.375,292.5,0.737122,0.202515,-0.416382,0.492249
74.5625,-102.5,67.25,7.99,-1.41,4.75,11.4375,55.1875,291.375,0.729492,0.208923,-0.420532,0.497375
75.125,-98.75,64.6875,8,-1.36,4.86,11.875,56,290.312,0.721863,0.215637,-0.424316,0.50238
79.125,-97.625,64.6875,8,-1.36,4.86,12.1875,56.75,289.188,0.714355,0.222534,-0.427673,0.507202
82.625,-95.625,59.625,8.27,-0.78,5.2,12.5,57.5,288.188,0.707153,0.22937,-0.430481,0.511902
83.625,-88.625,52.0625,8.27,-0.65,4.88,12.75,58.125,287.125,0.700256,0.235962,-0.432678,0.516479
83.5,-81.3125,48.4375,8.35,-0.72,4.71,12.9375,58.75,286.188,0.693604,0.242493,-0.434448,0.520874
84.4375,-76.3125,44.25,8.35,-1,4.16,13.0625,59.375,285.188,0.687134,0.249207,-0.435791,0.525146
87.625,-73.1875,44.25,8.35,-1,4.16,13.0625,59.9375,284.25,0.680725,0.256287,-0.436768,0.529358
92.1875,-72.8125,40.5625,8.27,-0.96,4.22,13.0625,60.5625,283.25,0.674194,0.263794,-0.437561,0.533325
95.3125,-74.75,32.75,8.04,-0.56,4.55,13,61.25,282.375,0.667664,0.271545,-0.438416,0.536926
95.6875,-78.25,29.5,8.16,-0.35,4.58,12.9375,61.9375,281.438,0.661072,0.279419,-0.439453,0.540161
93.375,-82.375,26.8125,8.27,-0.29,4.45,12.875,62.75,280.625,0.65448,0.287415,-0.440796,0.542908
90.3125,-86.875,26.8125,8.27,-0.29,4.45,12.875,62.75,280.625,0.647827,0.295471,-0.442322,0.545288
87.875,-89.9375,23.75,8.23,-0.25,4.7,12.875,63.5,279.812,0.641296,0.30365,-0.44397,0.547241
85.25,-92.6875,16.1875,8.52,-0.04,3.79,12.8125,65.25,278.312,0.634705,0.312012,-0.44574,0.548706
83.3125,-97.0625,13.125,8.6,-0.06,3.42,12.75,66.1875,277.562,0.628052,0.320679,-0.447571,0.549866
83.4375,-100.875,10.4375,8.74,-0.33,3.05,12.6875,67.125,276.875,0.621277,0.329651,-0.449402,0.550781
85.8125,-104.375,10.4375,8.74,-0.33,3.05,12.5625,68.125,276.125,0.614319,0.338928,-0.450989,0.551636
89.4375,-106.312,8.25,8.79,-0.73,3.08,12.375,69.125,275.375,0.6073,0.348511,-0.452332,0.552307
92.5,-106.812,-0.25,9.05,-0.73,3.21,12,70.125,274.688,0.600464,0.358276,-0.453369,0.552734
94.5,-106.312,-3.625,9.32,-0.9,3.25,11.625,71.125,274.062,0.593689,0.368103,-0.454102,0.552979
94.9375,-104.812,-3.9375,11.03,-1.47,2.8,11.1875,72.0625,273.375,0.587036,0.377686,-0.454712,0.553162
93.25,-101.375,-3.9375,11.03,-1.47,2.8,10.8125,72.9375,273.375,0.580566,0.386414,-0.454773,0.553894
93,-89.3125,0.8125,10.71,-1.36,3.45,10.5625,73.5625,272.688,0.574585,0.393677,-0.453918,0.555664
92.3125,-66.0625,10.1875,9.85,-1.04,5.39,10.375,73.9375,271.188,0.569824,0.39917,-0.452576,0.5578
79.875,-42.3125,10.4375,9.22,-0.08,4,10.3125,74.125,270.625,0.566345,0.402771,-0.451172,0.559875
60.625,-23.4375,10.625,8.96,-0.05,3.3,10.3125,74.25,270.188,0.563843,0.405151,-0.450195,0.561523
43.5625,-14.75,10.625,8.96,-0.05,3.3,10.3125,74.25,270.188,0.561951,0.406738,-0.449707,0.562561
28.625,-12.5,8.5625,9.42,-0.43,2.93,10.4375,74.375,269.875,0.560608,0.40802,-0.449463,0.563232
19.9375,-10.5,2.9375,9.63,-1.2,2.97,10.4375,74.5,269.562,0.559814,0.408813,-0.449036,0.563782
15,-4.0625,4.8125,9.35,-1.32,2.87,10.5,74.4375,269.438,0.559204,0.409119,-0.448547,0.564575
12.0625,2.0625,6.5625,8.37,-1.78,2.62,10.5625,74.375,269.25,0.558716,0.40918,-0.447998,0.565491
11.4375,4.8125,6.5625,8.37,-1.78,2.62,10.625,74.4375,269.125,0.557983,0.40979,-0.447571,0.566101
13.4375,-2.375,3.75,9.65,-1.58,2.53,10.5625,74.4375,269,0.557129,0.410706,-0.447144,0.566589
16.0625,-5.25,4.9375,8.86,-1.47,2.36,10.5625,74.4375,268.812,0.556335,0.411316,-0.446533,0.567444
16.5,-0.5625,5.5625,8.95,-1.52,2.94,10.5625,74.4375,268.625,0.55542,0.411926,-0.445923,0.568298
17,-0.9375,3.3125,9.27,-1.07,2.83,10.5625,74.5,268.5,0.554504,0.412781,-0.445496,0.568909
16.125,-4.5,3.3125,9.27,-1.07,2.83,10.5625,74.5,268.5,0.553711,0.413513,-0.445129,0.569397
13.75,-4.3125,2.875,9.51,-1.01,2.57,10.5625,74.5,268.375,0.553101,0.414062,-0.444763,0.569885
11.4375,-2.5,1.625,9.42,-0.58,2.89,10.5,74.5625,268.188,0.552734,0.41449,-0.444397,0.570312
9.3125,0,2.0625,9.03,-0.18,2.43,10.5,74.5,268.125,0.552551,0.41449,-0.444031,0.57074
5.3125,3.25,0.8125,9.01,-0.11,2.51,10.5,74.5,268.062,0.552551,0.414368,-0.443787,0.570984
2,3.5625,0.8125,9.01,-0.11,2.51,10.5,74.5,268.062,0.552551,0.414429,-0.443726,0.570862
-0.25,-0.25,-1.625,8.93,0.15,2.76,10.4375,74.5,268.125,0.552673,0.41449,-0.444092,0.570374
-5.625,-4.25,-5.3125,8.91,-0.05,2.06,10.375,74.5625,268.312,0.553223,0.414551,-0.44458,0.56958
-8.875,-5.25,-6.5,8.53,-0.08,1.97,10.1875,74.625,268.438,0.553528,0.414795,-0.444946,0.568848
-6.125,-6.125,-8.5,8.83,-0.03,2.58,10.0625,74.8125,268.5,0.553528,0.415588,-0.445557,0.567749
-4.25,-14.5,-8.5,8.83,-0.03,2.58,9.8125,75.0625,268.5,0.553345,0.416931,-0.446411,0.566284
-3.9375,-22.8125,-11.375,9.16,-0.41,2.4,9.5625,75.375,268.625,0.552979,0.418762,-0.44751,0.564392
-3.875,-30.875,-14.9375,9.7,-0.65,2.06,9.25,75.75,268.938,0.552551,0.420776,-0.448853,0.562256
-4.4375,-35.1875,-13.75,9.75,-0.53,1.81,9,76.0625,269.125,0.552063,0.422729,-0.450256,0.560181
-4.875,-35.0625,-12.3125,9.98,-0.05,1.48,8.75,76.4375,269.25,0.551453,0.424622,-0.451538,0.558289
-3.375,-33.4375,-12.3125,9.98,-0.05,1.48,8.75,76.4375,269.25,0.551453,0.426514,-0.452515,0.556702
-0.375,-30.5,-11.25,10.04,0.31,1.87,8.5,76.75,269.375,0.550842,0.428101,-0.453308,0.55542
1.5625,-24.8125,-6.6875,9.93,0.29,1.82,8.0625,77.1875,269.5,0.549805,0.429321,-0.453857,0.554443
1.125,-19.125,-5,9.85,0.22,1.78,7.9375,77.3125,269.5,0.549438,0.430176,-0.454285,0.553772
0.75,-13.5625,-3.5625,9.76,0.22,1.81,7.8125,77.375,269.562,0.549316,0.430725,-0.454529,0.553345
0.875,-8.1875,-3.5625,9.76,0.22,1.81,7.75,77.4375,269.562,0.549194,0.431091,-0.454529,0.553101
1.1875,-4.125,-2.75,9.69,0.25,1.88,7.625,77.4375,269.562,0.549194,0.431274,-0.454529,0.552979
1.0625,-1.9375,-0.625,9.61,0.2,1.87,7.625,77.5,269.562,0.549133,0.431396,-0.45459,0.552856
0.375,-2.25,-0.125,9.62,0.19,1.9,7.625,77.5,269.562,0.549011,0.431519,-0.454712,0.552795
0.4375,-2.125,0.1875,9.59,0.22,1.92,7.625,77.5,269.562,0.54895,0.43158,-0.454712,0.552795
0.75,-0.9375,0.1875,9.59,0.22,1.92,7.375,77.5625,269.625,0.549072,0.432007,-0.454529,0.55249
0.6875,0.0625,0.1875,9.63,0.23,1.89,7.1875,77.5625,269.625,0.549255,0.432312,-0.454346,0.552307
0.5625,1.625,0.9375,9.64,0.26,1.9,6.9375,77.5625,269.688,0.549438,0.432556,-0.454041,0.552185
0.6875,3.1875,1.375,9.63,0.26,1.91,6.75,77.5,269.688,0.549683,0.432617,-0.453674,0.552124
0.5625,4.9375,2.125,9.67,0.23,1.91,6.5625,77.5,269.75,0.549927,0.432617,-0.453369,0.552124
0.3125,6.1875,2.125,9.67,0.23,1.91,6.5625,77.5,269.75,0.550232,0.432495,-0.453003,0.552307
0.1875,7.625,2.9375,9.63,0.23,1.94,6.4375,77.4375,269.75,0.550537,0.432251,-0.452515,0.55249
0.125,9.125,3.25,9.58,0.19,1.99,6.25,77.3125,269.75,0.550842,0.431946,-0.452087,0.552856
0.1875,10.375,3.5625,9.62,0.19,1.98,6.1875,77.1875,269.75,0.551208,0.43158,-0.451599,0.553162
0.125,10.4375,3.8125,9.57,0.19,2.01,6.125,77.125,269.75,0.551514,0.431213,-0.451111,0.553528
0.4375,10.6875,3.8125,9.57,0.19,2.01,6.125,77.125,269.75,0.551514,0.431213,-0.451111,0.553894
0.5,11.75,4,9.5,0.19,2.06,6.0625,77,269.75,0.55188,0.430786,-0.450073,0.554382
0.4375,12.1875,4.0625,9.41,0.18,2.11,6,76.8125,269.75,0.552612,0.42981,-0.449524,0.55481
0.25,11.5,3.375,9.4,0.14,2.12,5.9375,76.75,269.75,0.552917,0.429382,-0.449097,0.555176
0.125,10.25,3,9.2,-0.1,2.14,5.9375,76.625,269.688,0.553162,0.428955,-0.44873,0.555603
0.4375,8.9375,3,9.2,-0.1,2.14,5.9375,76.625,269.688,0.553223,0.42865,-0.448425,0.555969
1.8125,6.1875,1.75,9.01,0.21,2.42,6,76.5625,269.688,0.553162,0.428711,-0.448242,0.556091
2.1875,0.75,-1.8125,9.31,0.11,2.14,5.9375,76.625,269.688,0.553101,0.429016,-0.448425,0.555786
0.5,-4.8125,-2.3125,9.37,0.06,2.17,5.75,76.6875,269.75,0.552979,0.429565,-0.448608,0.555359
-0.125,-7.9375,-3.375,9.39,0.21,2.14,5.5625,76.8125,269.75,0.552856,0.430237,-0.448853,0.554749
0.1875,-9.25,-3.375,9.39,0.21,2.14,5.375,76.8125,269.75,0.552734,0.43103,-0.449097,0.554077
0.25,-11,-3.625,9.36,0.22,2.16,5.375,76.875,269.812,0.552734,0.43103,-0.449097,0.553406
-0.25,-12.25,-3.8125,9.4,0.19,2.11,4.875,77.1875,269.938,0.552307,0.4328,-0.449768,0.552612
-0.375,-13.5625,-4.8125,9.4,0.2,2.22,4.625,77.3125,270,0.552124,0.433716,-0.450195,0.551697
-0.8125,-14.5625,-5.125,9.45,0.15,2.15,4.375,77.4375,270.062,0.551941,0.434631,-0.450684,0.550781
-1.9375,-15.4375,-5.125,9.45,0.15,2.15,4.375,77.4375,270.062,0.551819,0.435547,-0.451233,0.549744
-2.75,-16,-5.5,9.51,0.13,2.18,4.125,77.625,270.188,0.551758,0.43634,-0.45166,0.548767
-3.375,-15.5625,-5.8125,9.61,0.1,1.7,3.625,77.875,270.375,0.551758,0.436951,-0.452271,0.547852
-4.8125,-12.5,-5.25,9.78,0,1.93,3.4375,78,270.5,0.551819,0.437378,-0.45282,0.546997
-5.375,-10.625,-4.0625,9.63,0.17,1.29,3.3125,78.0625,270.562,0.551758,0.437805,-0.453308,0.546265
-4.1875,-9.5625,-4.0625,9.63,0.17,1.29,3.3125,78.0625,270.562,0.551758,0.437805,-0.453308,0.545715
-0.875,-9.4375,-3.6875,9.67,0.24,1.54,3.1875,78.1875,270.562,0.551636,0.438354,-0.453613,0.545227
0.875,-8.625,-3.625,9.62,0.51,2.14,2.9375,78.3125,270.625,0.55127,0.439392,-0.453979,0.544922
1.3125,-6.5625,-2.625,9.74,0.5,2.54,2.8125,78.375,270.625,0.551208,0.439697,-0.454102,0.544617
-0.1875,-4.625,-2.6875,9.69,0.55,0.68,2.75,78.375,270.688,0.551392,0.439636,-0.454285,0.544373
-4.3125,-0.6875,-1.9375,9.69,0.55,0.68,2.75,78.375,270.688,0.551392,0.439026,-0.454468,0.544189
-8.125,3.8125,-0.4375,9.31,0.52,0.98,2.8125,78.3125,270.75,0.55188,0.438843,-0.454651,0.544006
-4.375,0.125,-0.625,9.93,0.29,1.46,2.8125,78.375,270.812,0.552124,0.438843,-0.454773,0.543823
-2.4375,-1.0625,-0.8125,9.79,0.23,1.71,2.875,78.3125,270.812,0.552185,0.43866,-0.454773,0.543945
-0.625,2.125,1.25,9.65,0.27,1.82,2.9375,78.25,270.812,0.552307,0.438354,-0.45459,0.544189
0.0625,4.875,1.5,9.65,0.27,1.82,2.9375,78.25,270.812,0.55249,0.437927,-0.454346,0.544556
0.25,7.375,2.6875,9.5,0.3,1.92,3.0625,78.1875,270.812,0.552673,0.437439,-0.454041,0.545044
0.0625,8.25,2.9375,9.39,0.22,1.98,3.25,78.0625,270.75,0.552795,0.436951,-0.453796,0.545471
0.1875,7.9375,2.875,9.38,0.22,1.97,3.375,78,270.688,0.552979,0.436523,-0.453552,0.545837
0.4375,6.8125,2.4375,9.37,0.24,1.99,3.4375,77.9375,270.688,0.553101,0.436279,-0.45343,0.546082
0.3125,4.9375,1.6875,9.37,0.24,1.99,3.4375,77.9375,270.688,0.553101,0.436279,-0.45343,0.546265
0.1875,2.875,1.0625,9.37,0.22,2.01,3.5,77.875,270.688,0.553162,0.436096,-0.453186,0.546204
-0.0625,0.875,0.1875,9.39,0.22,1.97,3.3125,77.9375,270.75,0.553284,0.436279,-0.453125,0.546082
0.0625,-1.1875,-0.5,9.41,0.23,1.93,3.125,77.9375,270.75,0.553284,0.436584,-0.453186,0.545776
0.125,-3.25,-1.0625,9.51,0.24,1.92,3,78,270.812,0.553223,0.437012,-0.453247,0.545471
0.125,-4.75,-1.75,9.51,0.24,1.92,3,78,270.812,0.553223,0.4375,-0.453369,0.545044
0.3125,-5.75,-2.125,9.54,0.26,1.9,2.8125,78.0625,270.812,0.553162,0.437988,-0.453491,0.544556
0.3125,-6.1875,-2.125,9.58,0.26,1.82,2.375,78.1875,270.875,0.55304,0.438538,-0.453613,0.544128
0.125,-5.9375,-2.125,9.72,0.28,1.78,2.1875,78.25,270.938,0.552979,0.439026,-0.453735,0.543701
0,-5.125,-1.6875,9.73,0.29,1.8,2,78.3125,271,0.552917,0.439453,-0.453796,0.543335
-0.0625,-3.5625,-1,9.73,0.29,1.8,1.875,78.3125,271,0.552979,0.439697,-0.453796,0.543152
0.0625,-1.125,-0.25,9.72,0.29,1.81,1.75,78.3125,271,0.55304,0.439819,-0.453674,0.54303
0.0625,1.4375,0.5625,9.63,0.25,1.83,1.6875,78.3125,271,0.553162,0.439819,-0.453491,0.543091
0,3.75,1.375,9.52,0.24,1.88,1.625,78.25,271,0.553345,0.439636,-0.453247,0.543213
-0.125,5.375,2,9.47,0.21,1.95,1.625,78.25,271,0.553528,0.439392,-0.453003,0.543457
-0.0625,6,2.25,9.47,0.21,1.95,1.625,78.25,271,0.553528,0.439148,-0.452759,0.543701
-0.25,5.6875,2.0625,9.41,0.21,1.94,1.6875,78.1875,271,0.553711,0.439148,-0.452759,0.543701
0,4.375,1.5625,9.4,0.22,1.96,1.625,78.125,271,0.553955,0.438843,-0.452393,0.544006
0,2.9375,1.125,9.4,0.23,1.96,1.5625,78.0625,271,0.554016,0.438843,-0.452271,0.543945
0.0625,1.1875,0.4375,9.41,0.22,1.96,1.5,78.125,271,0.554077,0.438965,-0.452209,0.543884
0,-0.625,-0.25,9.41,0.22,1.96,1.5,78.125,271,0.554077,0.438965,-0.452209,0.543701
0,-2.25,-0.875,9.44,0.2,1.94,1.375,78.125,271.062,0.554077,0.439148,-0.452271,0.543457
0.0625,-3.75,-1.125,9.53,0.22,1.87,1.125,78.1875,271.125,0.553955,0.439819,-0.452393,0.543152
0.0625,-4.125,-1.6875,9.65,0.24,1.83,1,78.25,271.125,0.553894,0.440186,-0.452515,0.542786
0.125,-4.5,-1.5625,9.66,0.3,1.81,0.8125,78.3125,271.188,0.553894,0.440552,-0.452576,0.54248
0,-3.6875,-1.375,9.66,0.3,1.81,0.8125,78.3125,271.188,0.553894,0.440857,-0.452637,0.542236
0,-2.3125,-0.875,9.65,0.26,1.81,0.6875,78.3125,271.188,0.553833,0.440857,-0.452637,0.542114
0.0625,-0.9375,-0.3125,9.57,0.26,1.87,0.5,78.375,271.188,0.553894,0.441162,-0.452576,0.541992
0,0.5625,0.1875,9.5,0.26,1.89,0.4375,78.375,271.25,0.553955,0.441162,-0.452454,0.541992
-0.125,1.4375,0.75,9.46,0.21,1.91,0.4375,78.3125,271.25,0.554016,0.441101,-0.452393,0.542053
-0.0625,1.8125,0.8125,9.46,0.21,1.91,0.4375,78.3125,271.25,0.554016,0.441101,-0.452393,0.542053
0,1.3125,0.625,9.43,0.26,1.99,0.375,78.3125,271.25,0.554077,0.441101,-0.452271,0.542053
0,0.0625,0.125,9.5,0.23,1.9,0.25,78.3125,271.25,0.554138,0.441284,-0.452209,0.541931
0.1875,-0.6875,-0.25,9.57,0.23,1.86,0.1875,78.375,271.25,0.554138,0.441406,-0.452271,0.541809
-0.0625,-1.75,-0.375,9.64,0.25,1.83,0.125,78.375,271.25,0.554077,0.441589,-0.452271,0.541687
0.0625,-1.75,-0.375,9.64,0.25,1.83,0.125,78.375,271.25,0.554077,0.441589,-0.452271,0.541565
-0.125,-1.3125,-0.5,9.66,0.28,1.83,0.0625,78.375,271.25,0.554077,0.441772,-0.452332,0.541443
-0.0625,-0.3125,0.125,9.71,0.26,1.81,-0.0625,78.4375,271.312,0.554199,0.441956,-0.452209,0.541382
-0.125,1.3125,0.4375,9.71,0.29,1.83,-0.0625,78.375,271.312,0.55426,0.441895,-0.452026,0.541443
0,3.375,1.1875,9.67,0.25,1.82,-0.0625,78.3125,271.312,0.554443,0.44165,-0.451843,0.541626
-0.125,5.625,2.0625,9.67,0.25,1.82,-0.0625,78.3125,271.312,0.554443,0.44165,-0.451538,0.541992
-0.25,7.9375,2.8125,9.66,0.25,1.85,0,78.25,271.312,0.554626,0.441345,-0.451172,0.542419
-0.375,10.0625,3.5625,9.67,0.26,1.89,0.125,78.0625,271.25,0.555176,0.440308,-0.450745,0.542969
-0.0625,11.4375,4.1875,9.55,0.25,1.96,0.25,77.9375,271.188,0.555481,0.439636,-0.450256,0.543579
0.0625,13.1875,4.4375,9.55,0.25,1.96,0.375,77.8125,271.188,0.555847,0.438904,-0.449707,0.54425
0.125,14.1875,4.625,9.52,0.22,1.97,0.375,77.8125,271.188,0.555847,0.438904,-0.449707,0.54425
0.375,14.5625,4.5625,9.54,0.18,1.99,0.5625,77.6875,271.125,0.556213,0.43811,-0.449158,0.544922
0.5,14.6875,4.75,9.44,0.13,2.05,0.875,77.4375,271.062,0.556885,0.436584,-0.44812,0.546326
0.5,14.125,4.5,9.34,0.15,2.15,1,77.3125,271.062,0.557251,0.435852,-0.447632,0.546997
0.5625,13,4.125,9.25,0.13,2.18,1.125,77.1875,271,0.557495,0.435242,-0.447205,0.547546
0.5625,11.3125,3.5,9.25,0.13,2.18,1.125,77.1875,271,0.557495,0.435242,-0.447205,0.547791
0.375,6,1.75,9.22,0.15,2.24,1.125,77.125,271,0.557678,0.434875,-0.446899,0.548096
0.375,6,1.75,9.19,0.16,2.27,1.1875,77.0625,271,0.558044,0.434448,-0.446472,0.548218
0.0625,2.375,0.625,9.35,0.12,2.17,1.125,77.0625,271,0.558044,0.434509,-0.446472,0.548157
0.0625,-1.125,-0.5625,9.45,0.16,2.12,1.0625,77.0625,271,0.557922,0.434814,-0.446594,0.547913
0.0625,-4.375,-1.375,9.45,0.16,2.12,1.0625,77.0625,271,0.557922,0.434814,-0.446594,0.547913
0.25,-6.875,-2.25,9.55,0.19,2.08,0.9375,77.125,271.062,0.5578,0.435242,-0.446838,0.547485
0.25,-6.875,-2.25,9.68,0.24,1.99,0.75,77.25,271.062,0.557495,0.435974,-0.447266,0.546814
0.125,-5.8125,-1.8125,9.71,0.23,2.01,0.75,77.3125,271.062,0.557434,0.436035,-0.447327,0.546814
-0.0625,-1.3125,-0.25,9.72,0.23,1.98,0.75,77.25,271.062,0.557495,0.435974,-0.447266,0.546875
-0.0625,1.4375,0.5625,9.72,0.23,1.98,0.75,77.25,271.062,0.557495,0.435974,-0.447266,0.546875
0.0625,3.9375,1.3125,9.69,0.25,2.01,0.8125,77.25,271.062,0.557617,0.435791,-0.447144,0.547058
-0.125,5.625,2,9.54,0.2,2.06,0.875,77.125,271.062,0.557922,0.435242,-0.446655,0.547546
-0.0625,7,2.375,9.51,0.17,2.09,0.875,77.0625,271,0.558105,0.434875,-0.44635,0.547852
0,7.625,2.5625,9.44,0.16,2.12,0.9375,77,271,0.558289,0.434509,-0.446045,0.548218
-0.0625,7.6875,2.625,9.44,0.16,2.12,0.9375,77,271,0.558289,0.434509,-0.446045,0.548218
0.125,7.1875,2.375,9.45,0.16,2.15,1,76.9375,271,0.558472,0.434143,-0.44574,0.548523
0.1875,6.5625,2.125,9.43,0.13,2.16,1.125,76.8125,271,0.558838,0.433472,-0.445251,0.549133
0.125,6.125,1.9375,9.44,0.15,2.21,1.125,76.75,270.938,0.55896,0.433228,-0.445007,0.549377
0.1875,5.625,1.8125,9.48,0.12,2.19,1.1875,76.6875,270.938,0.559143,0.432922,-0.444824,0.549622
0.1875,5.1875,1.6875,9.48,0.12,2.19,1.1875,76.6875,270.938,0.559143,0.432922,-0.444824,0.549866
0.0625,4.9375,1.625,9.47,0.13,2.17,1.1875,76.6875,270.938,0.559265,0.432678,-0.44458,0.549866
0.1875,4.9375,1.625,9.46,0.11,2.18,1.25,76.625,270.938,0.559509,0.43219,-0.444214,0.550293
0.1875,4.75,1.625,9.46,0.15,2.19,1.3125,76.5,270.938,0.559631,0.432007,-0.444031,0.550476
0.25,4.875,1.625,9.46,0.12,2.22,1.3125,76.5,270.875,0.559753,0.431763,-0.443848,0.55072
0.3125,4.5625,1.5625,9.46,0.12,2.22,1.3125,76.5,270.875,0.559753,0.431763,-0.443848,0.55072
0.125,4.1875,1.4375,9.44,0.14,2.23,1.375,76.4375,270.875,0.559875,0.43158,-0.443665,0.550903
0.25,4.0625,1.25,9.42,0.15,2.23,1.375,76.375,270.875,0.560059,0.431213,-0.443359,0.551208
0.125,3.625,1.3125,9.45,0.12,2.2,1.375,76.3125,270.875,0.560181,0.43103,-0.443176,0.551392
0.1875,3.5625,1.1875,9.46,0.12,2.25,1.375,76.3125,270.875,0.560242,0.430908,-0.443054,0.551514
0.125,3.125,1,9.46,0.12,2.25,1.375,76.3125,270.875,0.560242,0.430908,-0.443054,0.551514
0.125,2.75,0.9375,9.41,0.12,2.26,1.375,76.3125,270.875,0.560364,0.430786,-0.442932,0.551636
0.0625,2.4375,0.75,9.41,0.12,2.3,1.375,76.25,270.875,0.560486,0.430603,-0.442688,0.551758
-0.0625,1.75,0.5625,9.39,0.11,2.32,1.375,76.25,270.875,0.560547,0.430603,-0.442627,0.551758
0.0625,0.875,0.3125,9.39,0.11,2.31,1.3125,76.25,270.875,0.560547,0.430603,-0.442627,0.551758
0,0,-0.0625,9.39,0.11,2.31,1.3125,76.25,270.875,0.560547,0.430664,-0.442627,0.551697
-0.0625,-1.0625,-0.4375,9.37,0.1,2.29,1.3125,76.25,270.875,0.560486,0.430786,-0.442688,0.551575
-0.0625,-1.9375,-0.5625,9.36,0.12,2.24,1.25,76.3125,270.875,0.560486,0.430969,-0.44281,0.551453
0.0625,-2.75,-1.0625,9.36,0.1,2.28,1.1875,76.3125,270.938,0.560425,0.431213,-0.442871,0.551208
0.125,-3.875,-1.5625,9.38,0.12,2.27,1.0625,76.375,270.938,0.560303,0.43158,-0.443054,0.550903
0.125,-5.25,-1.8125,9.38,0.12,2.27,1.0625,76.375,270.938,0.560303,0.43158,-0.443054,0.550903
0.125,-5.8125,-2,9.42,0.14,2.26,1,76.4375,270.938,0.560181,0.431946,-0.443237,0.550598
0,-6.25,-2,9.49,0.13,2.18,0.75,76.5,271,0.559937,0.432739,-0.443604,0.549866
0.0625,-5.9375,-2,9.51,0.16,2.2,0.6875,76.625,271,0.559814,0.433105,-0.443787,0.549561
0.125,-5.5625,-1.6875,9.5,0.14,2.2,0.625,76.6875,271.062,0.559753,0.433411,-0.44397,0.549255
0.0625,-5.1875,-1.5,9.5,0.14,2.2,0.625,76.6875,271.062,0.559753,0.433411,-0.44397,0.549255
0.125,-4.8125,-1.625,9.51,0.17,2.14,0.5,76.6875,271.062,0.559631,0.433777,-0.444153,0.549011
0.0625,-4.625,-1.4375,9.52,0.18,2.14,0.3125,76.75,271.062,0.559509,0.434326,-0.444397,0.548462
0.0625,-3.5625,-1.0625,9.67,0.21,2.11,0.3125,76.8125,271.125,0.559448,0.434509,-0.444458,0.54834
-0.125,-1.875,-0.5625,9.7,0.19,2.08,0.25,76.8125,271.125,0.559448,0.43457,-0.444458,0.548279
-0.0625,0.5,0.1875,9.7,0.19,2.08,0.25,76.8125,271.125,0.559448,0.43457,-0.444458,0.548279
-0.0625,3.1875,1.125,9.68,0.18,2.11,0.25,76.8125,271.125,0.559509,0.434509,-0.444336,0.548401
-0.125,5.6875,1.875,9.65,0.17,2.09,0.375,76.75,271.125,0.559814,0.433838,-0.443848,0.54895
-0.125,7.8125,2.5625,9.47,0.16,2.16,0.4375,76.625,271.062,0.560059,0.433411,-0.443481,0.549377
-0.1875,8.9375,2.9375,9.46,0.13,2.25,0.5,76.5,271.062,0.560303,0.432861,-0.443115,0.549866
-0.125,9.3125,2.875,9.46,0.13,2.25,0.5,76.5,271.062,0.560303,0.432861,-0.443115,0.549866
-0.125,8.8125,2.875,9.39,0.13,2.26,0.625,76.4375,271,0.560486,0.432434,-0.44281,0.550293
-0.125,7.875,2.625,9.41,0.11,2.27,0.6875,76.375,271,0.560669,0.43158,-0.442261,0.551025
-0.1875,6.875,2.4375,9.37,0.09,2.28,0.8125,76.25,270.938,0.560974,0.431213,-0.442017,0.551331
0.0625,6.3125,2.0625,9.36,0.11,2.29,0.875,76.1875,270.938,0.561096,0.430908,-0.441833,0.551575
-0.0625,5.4375,1.875,9.36,0.11,2.29,0.875,76.1875,270.938,0.561096,0.430908,-0.441833,0.551575
-0.0625,4.5,1.5,9.36,0.09,2.35,0.9375,76.125,270.938,0.561218,0.430664,-0.44165,0.551819
0.0625,3.3125,1.125,9.38,0.07,2.33,1,76.0625,270.938,0.561401,0.430359,-0.441406,0.552124
0,2.4375,0.8125,9.35,0.09,2.32,0.9375,76.0625,270.938,0.561462,0.430298,-0.441345,0.552124
0.0625,1.3125,0.5,9.38,0.11,2.3,0.9375,76.0625,270.938,0.561462,0.430298,-0.441284,0.552124
-0.0625,0.375,0.1875,9.38,0.11,2.3,0.9375,76.0625,270.938,0.561462,0.430359,-0.441284,0.552124
0.0625,-0.5,-0.1875,9.37,0.09,2.32,0.9375,76.0625,270.938,0.561401,0.43042,-0.441345,0.552063
0.0625,-1.1875,-0.4375,9.41,0.13,2.29,0.875,76.125,270.938,0.56134,0.430542,-0.441406,0.551941
0.0625,-1.9375,-0.5,9.43,0.11,2.29,0.875,76.125,270.938,0.56134,0.430664,-0.441467,0.551819
0.125,-2.375,-0.75,9.46,0.11,2.27,0.8125,76.125,270.938,0.561279,0.430847,-0.441528,0.551697
0.125,-2.625,-0.75,9.46,0.11,2.27,0.8125,76.125,270.938,0.561279,0.430847,-0.441528,0.551697
0.0625,-2.625,-1,9.46,0.1,2.31,0.75,76.1875,271,0.561218,0.43103,-0.44165,0.551514
0.125,-2.5,-0.8125,9.45,0.11,2.26,0.6875,76.25,271,0.561157,0.431396,-0.441772,0.551208
0,-2.4375,-0.875,9.5,0.13,2.27,0.625,76.25,271,0.561096,0.431519,-0.441833,0.551086
0.0625,-2,-0.625,9.5,0.11,2.26,0.625,76.25,271,0.561096,0.431641,-0.441895,0.551025
0.0625,-1.5,-0.5,9.5,0.11,2.26,0.625,76.25,271,0.561096,0.431641,-0.441895,0.551025
0.0625,-0.875,-0.1875,9.48,0.12,2.24,0.5625,76.25,271,0.561096,0.431763,-0.441895,0.550903
0.0625,-0.375,-0.0625,9.5,0.15,2.25,0.5625,76.25,271,0.561096,0.431763,-0.441895,0.550903
0.125,0.25,0.1875,9.5,0.12,2.22,0.5,76.3125,271,0.561096,0.431824,-0.441833,0.550903
0,0.5625,0.375,9.48,0.11,2.26,0.5,76.25,271,0.561157,0.431763,-0.441772,0.550903
-0.0625,1.1875,0.4375,9.46,0.11,2.26,0.5,76.25,271,0.561157,0.431763,-0.441772,0.550903
0.0625,1.5,0.5,9.46,0.12,2.26,0.5,76.25,271,0.561218,0.431763,-0.441711,0.550903
0,2,0.6875,9.45,0.12,2.28,0.4375,76.25,271,0.56134,0.43158,-0.441528,0.551086
-0.125,1.8125,0.5,9.44,0.11,2.27,0.5,76.1875,271,0.561401,0.431519,-0.441467,0.551147
0,1.875,0.6875,9.42,0.11,2.3,0.4375,76.1875,271,0.561462,0.431458,-0.441345,0.551208
0.0625,1.5,0.5625,9.44,0.11,2.3,0.4375,76.1875,271,0.561462,0.431458,-0.441345,0.551208
-0.0625,1.5,0.375,9.42,0.11,2.29,0.4375,76.1875,271,0.561523,0.431396,-0.441284,0.551208
0.0625,1.1875,0.25,9.43,0.1,2.31,0.4375,76.1875,271.062,0.561646,0.431335,-0.441162,0.55127
0.125,0.6875,0.1875,9.41,0.11,2.26,0.4375,76.1875,271.062,0.561646,0.431335,-0.441162,0.55127
0,0.1875,0.125,9.4,0.12,2.32,0.375,76.1875,271.062,0.561646,0.431396,-0.441162,0.551208
0.0625,-0.125,-0.0625,9.42,0.12,2.32,0.375,76.1875,271.062,0.561646,0.431396,-0.441162,0.551208
-0.0625,-0.375,-0.1875,9.43,0.1,2.29,0.375,76.1875,271.062,0.561646,0.431458,-0.441162,0.551208
0,-0.6875,-0.25,9.44,0.12,2.27,0.375,76.1875,271.062,0.561646,0.431519,-0.441162,0.551147
0,-0.8125,-0.4375,9.44,0.12,2.27,0.3125,76.1875,271.062,0.561584,0.43158,-0.441223,0.551086
0,-0.75,-0.375,9.43,0.11,2.3,0.3125,76.1875,271.062,0.561584,0.431641,-0.441223,0.551025
0,-1.125,-0.3125,9.43,0.11,2.3,0.3125,76.1875,271.062,0.561584,0.431641,-0.441223,0.551025
-0.0625,-1.125,-0.3125,9.45,0.13,2.29,0.3125,76.25,271.062,0.561523,0.431763,-0.441284,0.550964
0,-0.9375,-0.375,9.45,0.12,2.27,0.3125,76.25,271.062,0.561523,0.431824,-0.441345,0.550903
0.0625,-0.6875,-0.25,9.47,0.11,2.27,0.25,76.25,271.062,0.561523,0.431824,-0.441284,0.550903
0,-0.375,-0.1875,9.45,0.12,2.25,0.25,76.25,271.062,0.561523,0.431885,-0.441284,0.550842
0.0625,-0.5,-0.125,9.47,0.12,2.25,0.25,76.25,271.062,0.561523,0.431885,-0.441284,0.550842
0.0625,-0.125,-0.0625,9.47,0.12,2.26,0.25,76.25,271.062,0.561523,0.431885,-0.441284,0.550842
0.0625,0.3125,0,9.47,0.13,2.28,0.1875,76.25,271.062,0.561523,0.431946,-0.441284,0.550781
-0.0625,0.5625,0.0625,9.47,0.13,2.28,0.1875,76.25,271.062,0.561584,0.431946,-0.441223,0.550781
0,0.625,0.3125,9.48,0.11,2.27,0.1875,76.25,271.062,0.561646,0.431885,-0.441162,0.550842
-0.0625,0.875,0.1875,9.44,0.11,2.27,0.1875,76.25,271.062,0.561646,0.431885,-0.441162,0.550842
0.0625,0.875,0.3125,9.43,0.11,2.26,0.125,76.1875,271.062,0.561707,0.431885,-0.44104,0.550842
-0.0625,0.6875,0.25,9.45,0.09,2.26,0.125,76.1875,271.062,0.561707,0.431885,-0.44104,0.550842
0,0.5625,0.3125,9.43,0.11,2.3,0.125,76.1875,271.062,0.561707,0.431885,-0.44104,0.550842
0,0.5,0.3125,9.44,0.1,2.29,0.125,76.1875,271.062,0.561707,0.431946,-0.44104,0.550781
-0.0625,0.4375,0.125,9.44,0.1,2.29,0.125,76.1875,271.062,0.561707,0.431946,-0.44104,0.550781
0.0625,0.375,0.125,9.43,0.12,2.31,0.0625,76.1875,271.125,0.561768,0.431946,-0.440979,0.550781
0,0.125,0,9.42,0.12,2.27,0.0625,76.1875,271.125,0.561768,0.431946,-0.440979,0.550781
0,-0.125,0,9.44,0.11,2.28,0.0625,76.1875,271.125,0.561768,0.432007,-0.440979,0.550781
0,-0.375,0,9.45,0.11,2.29,0.0625,76.1875,271.125,0.561768,0.432007,-0.440979,0.55072
0,-0.4375,0,9.46,0.11,2.29,0.0625,76.1875,271.125,0.561768,0.432007,-0.440979,0.55072
0.0625,-0.5,-0.1875,9.43,0.11,2.27,0.0625,76.1875,271.125,0.561768,0.432007,-0.440979,0.55072
0,-0.4375,-0.3125,9.45,0.11,2.26,0,76.1875,271.125,0.561768,0.432068,-0.440979,0.55072
-0.0625,-0.625,-0.125,9.45,0.13,2.28,0,76.1875,271.125,0.561768,0.432068,-0.440979,0.550659
0.125,-0.375,-0.3125,9.44,0.12,2.29,0,76.1875,271.125,0.561768,0.432129,-0.440979,0.550659
-0.0625,-0.375,-0.125,9.46,0.12,2.29,0,76.1875,271.125,0.561768,0.432129,-0.440979,0.550659
0,-0.375,-0.125,9.45,0.12,2.27,0,76.25,271.125,0.561829,0.432129,-0.440918,0.550659
0.0625,-0.3125,-0.125,9.44,0.09,2.25,0,76.25,271.125,0.561829,0.43219,-0.440918,0.550598
-0.125,-0.1875,-0.0625,9.45,0.1,2.24,0,76.25,271.125,0.561829,0.43219,-0.440918,0.550598
0,0.0625,0.0625,9.45,0.11,2.29,0,76.25,271.125,0.561829,0.43219,-0.440918,0.550598
0,0.125,0.0625,9.46,0.11,2.29,0,76.25,271.125,0.561829,0.43219,-0.440918,0.550598
0.0625,0.3125,0.125,9.46,0.14,2.32,0,76.25,271.125,0.561829,0.432251,-0.440857,0.550598
0,0.4375,0,9.46,0.11,2.28,-0.0625,76.25,271.125,0.561829,0.432251,-0.440857,0.550537
-0.0625,0.375,0.25,9.44,0.12,2.27,-0.0625,76.1875,271.125,0.56189,0.432251,-0.440857,0.550598
0,0.625,0.25,9.43,0.13,2.28,-0.0625,76.25,271.125,0.56189,0.432251,-0.440796,0.550537
0,0.5,0.1875,9.45,0.13,2.28,-0.0625,76.25,271.125,0.56189,0.432251,-0.440796,0.550537
0.0625,0.375,0.1875,9.43,0.1,2.28,-0.0625,76.25,271.125,0.56189,0.432312,-0.440796,0.550537
0.0625,0.1875,0.25,9.43,0.1,2.26,-0.0625,76.25,271.125,0.56189,0.432312,-0.440796,0.550537
0.0625,0.125,0.0625,9.43,0.1,2.29,-0.125,76.25,271.125,0.561951,0.432312,-0.440796,0.550537
0.125,0,0,9.44,0.11,2.29,-0.125,76.25,271.125,0.561951,0.432312,-0.440796,0.550476
-0.0625,0,-0.0625,9.43,0.11,2.29,-0.125,76.25,271.125,0.561951,0.432312,-0.440796,0.550476
-0.0625,-0.0625,-0.0625,9.44,0.11,2.29,-0.125,76.25,271.125,0.561951,0.432373,-0.440735,0.550476
0.125,-0.3125,0,9.45,0.11,2.25,-0.125,76.25,271.125,0.561951,0.432373,-0.440735,0.550476
-0.0625,-0.375,-0.125,9.45,0.12,2.29,-0.125,76.25,271.125,0.561951,0.432373,-0.440735,0.550476
0.125,-0.5,-0.25,9.46,0.13,2.27,-0.1875,76.25,271.125,0.561951,0.432373,-0.440735,0.550476
0.0625,-0.3125,0.0625,9.43,0.13,2.27,-0.1875,76.25,271.125,0.561951,0.432373,-0.440735,0.550415
0,-0.25,-0.0625,9.44,0.14,2.3,-0.1875,76.25,271.188,0.561951,0.432434,-0.440735,0.550415
0.0625,-0.1875,-0.125,9.46,0.13,2.29,-0.1875,76.25,271.188,0.562012,0.432434,-0.440674,0.550415
0.0625,-0.0625,0.125,9.42,0.1,2.29,-0.1875,76.25,271.188,0.562012,0.432434,-0.440674,0.550415
0,0.0625,0.0625,9.44,0.11,2.3,-0.1875,76.25,271.188,0.562012,0.432434,-0.440674,0.550415
0,0.125,0.0625,9.49,0.11,2.3,-0.1875,76.25,271.188,0.562012,0.432434,-0.440674,0.550415
-0.1875,0.125,0.125,9.46,0.18,2.32,-0.25,76.25,271.188,0.562012,0.432495,-0.440674,0.550354
0,0,-0.25,9.41,0.08,2.29,-0.25,76.25,271.188,0.562012,0.432495,-0.440674,0.550354
-0.0625,-0.5625,0.125,9.45,0.06,2.22,-0.25,76.25,271.188,0.562012,0.432495,-0.440674,0.550354
-0.0625,-0.5,-0.125,9.47,0.17,2.33,-0.25,76.25,271.188,0.562012,0.432495,-0.440613,0.550354
0.125,0.0625,-0.1875,9.45,0.17,2.33,-0.25,76.25,271.188,0.562012,0.432495,-0.440613,0.550354
-0.0625,0.0625,0,9.45,0.15,2.28,-0.25,76.25,271.188,0.562012,0.432556,-0.440613,0.550354
0,0.125,-0.0625,9.43,0.11,2.24,-0.25,76.25,271.188,0.562012,0.432556,-0.440613,0.550354
0.0625,-0.25,0,9.46,0.12,2.28,-0.25,76.25,271.188,0.562012,0.432556,-0.440613,0.550354
0,0,0.125,9.46,0.13,2.29,-0.25,76.25,271.188,0.562012,0.432556,-0.440613,0.550354
0,0.125,0.0625,9.44,0.13,2.29,-0.25,76.25,271.188,0.562012,0.432556,-0.440613,0.550354
-0.0625,0.125,0.0625,9.46,0.11,2.26,-0.25,76.25,271.188,0.562012,0.432556,-0.440613,0.550354
-0.125,0.0625,0.125,9.45,0.12,2.26,-0.25,76.25,271.188,0.562012,0.432556,-0.440613,0.550354
-0.0625,0.25,0.0625,9.45,0.1,2.26,-0.25,76.25,271.188,0.562012,0.432556,-0.440613,0.550354
-0.125,-0.0625,0.125,9.44,0.11,2.28,-0.25,76.25,271.188,0.562012,0.432556,-0.440613,0.550354
-0.0625,-0.0625,0.0625,9.46,0.11,2.28,-0.25,76.25,271.188,0.562012,0.432556,-0.440613,0.550354
0,-0.375,-0.125,9.45,0.11,2.28,-0.25,76.25,271.188,0.562012,0.432556,-0.440613,0.550354
0,-0.375,-0.0625,9.44,0.12,2.25,-0.25,76.25,271.188,0.562012,0.432556,-0.440613,0.550354
-0.125,-0.4375,-0.1875,9.44,0.11,2.26,-0.25,76.25,271.188,0.562012,0.432556,-0.440613,0.550354
0,-0.5,-0.125,9.44,0.12,2.27,-0.25,76.25,271.188,0.562012,0.432556,-0.440613,0.550354
-0.0625,-0.4375,-0.125,9.45,0.12,2.27,-0.25,76.25,271.188,0.562012,0.432556,-0.440613,0.550354
0,-0.1875,0,9.44,0.11,2.26,-0.25,76.25,271.188,0.562012,0.432556,-0.440613,0.550354
-0.0625,-0.1875,-0.0625,9.46,0.14,2.27,-0.25,76.25,271.188,0.562012,0.432556,-0.440613,0.550354
-0.0625,-0.125,-0.125,9.47,0.11,2.28,-0.25,76.25,271.188,0.562012,0.432556,-0.440613,0.550354
0.0625,-0.125,-0.0625,9.45,0.12,2.28,-0.25,76.25,271.188,0.562012,0.432556,-0.440613,0.550354
0.0625,0.125,0.125,9.45,0.12,2.28,-0.25,76.25,271.188,0.562012,0.432556,-0.440613,0.550354
-0.0625,0.3125,0,9.43,0.13,2.29,-0.25,76.25,271.188,0.562012,0.432556,-0.440613,0.550354
0,0.125,0.125,9.46,0.11,2.28,-0.25,76.25,271.188,0.562012,0.432556,-0.440613,0.550354
0,0.125,0.0625,9.45,0.11,2.26,-0.25,76.25,271.188,0.562012,0.432556,-0.440613,0.550354
0.125,0.25,0.0625,9.45,0.11,2.29,-0.25,76.25,271.188,0.562012,0.432556,-0.440613,0.550354
-0.125,0.375,0.0625,9.45,0.11,2.29,-0.25,76.25,271.188,0.562012,0.432556,-0.440613,0.550354
0.0625,0.25,0.125,9.45,0.11,2.27,-0.25,76.25,271.188,0.562012,0.432556,-0.440613,0.550354
0.0625,0,0.0625,9.44,0.11,2.26,-0.25,76.25,271.188,0.562012,0.432556,-0.440613,0.550354
0.0625,-0.125,0,9.45,0.11,2.29,-0.25,76.25,271.188,0.562012,0.432556,-0.440613,0.550354
0,-0.1875,0,9.46,0.13,2.33,-0.25,76.25,271.188,0.562012,0.432556,-0.440613,0.550354
0,-0.1875,0.0625,9.44,0.13,2.33,-0.25,76.25,271.188,0.562012,0.432556,-0.440613,0.550354
0,0,-0.1875,9.43,0.1,2.28,-0.25,76.25,271.188,0.562012,0.432556,-0.440613,0.550354
0,-0.1875,-0.0625,9.45,0.11,2.27,-0.25,76.25,271.188,0.562012,0.432556,-0.440613,0.550354
0.0625,-0.3125,-0.0625,9.46,0.12,2.28,-0.25,76.25,271.188,0.562012,0.432556,-0.440613,0.550354
0,-0.0625,-0.1875,9.44,0.11,2.26,-0.25,76.25,271.188,0.562012,0.432556,-0.440613,0.550354
-0.0625,-0.1875,-0.0625,9.45,0.11,2.26,-0.25,76.25,271.188,0.562012,0.432556,-0.440613,0.550354
0.125,-0.3125,-0.125,9.44,0.12,2.29,-0.25,76.25,271.188,0.562012,0.432556,-0.440613,0.550354
0.0625,-0.125,-0.0625,9.45,0.12,2.29,-0.25,76.25,271.188,0.562012,0.432556,-0.440613,0.550354
0.125,-0.125,-0.0625,9.46,0.12,2.27,-0.25,76.25,271.188,0.562012,0.432556,-0.440613,0.550354
0,-0.0625,0.0625,9.47,0.11,2.28,-0.25,76.25,271.188,0.562012,0.432556,-0.440613,0.550354
0,0.125,0,9.46,0.11,2.28,-0.25,76.25,271.188,0.562012,0.432556,-0.440613,0.550354
0,0.3125,-0.0625,9.45,0.11,2.26,-0.25,76.25,271.188,0.562012,0.432556,-0.440613,0.550354
0,-0.0625,0.0625,9.46,0.11,2.27,-0.25,76.25,271.188,0.562012,0.432556,-0.440613,0.550354
0,-0.0625,-0.0625,9.43,0.11,2.29,-0.25,76.25,271.188,0.562012,0.432556,-0.440613,0.550354
0,-0.125,0.125,9.45,0.1,2.26,-0.25,76.25,271.188,0.562012,0.432556,-0.440613,0.550354
-0.0625,0.0625,0.0625,9.44,0.1,2.26,-0.25,76.25,271.188,0.562012,0.432556,-0.440613,0.550354
0.0625,0,0.1875,9.43,0.14,2.27,-0.25,76.25,271.188,0.562012,0.432556,-0.440613,0.550354
-0.0625,0.1875,0,9.44,0.1,2.26,-0.25,76.25,271.188,0.562012,0.432556,-0.440613,0.550354
-0.0625,0,0,9.45,0.11,2.27,-0.25,76.25,271.188,0.562012,0.432556,-0.440613,0.550354
0,0.0625,0,9.45,0.09,2.28,-0.25,76.25,271.188,0.562012,0.432556,-0.440613,0.550354
-0.0625,-0.0625,0.125,9.45,0.09,2.28,-0.25,76.25,271.188,0.562012,0.432556,-0.440613,0.550354
-0.0625,-0.1875,0,9.44,0.13,2.28,-0.25,76.25,271.188,0.562012,0.432556,-0.440613,0.550354
-0.0625,-0.125,-0.0625,9.43,0.12,2.29,-0.25,76.25,271.188,0.562012,0.432556,-0.440613,0.550354
-0.0625,-0.125,0.0625,9.43,0.13,2.28,-0.25,76.25,271.188,0.562012,0.432556,-0.440613,0.550354
0,0,0,9.44,0.12,2.26,-0.25,76.25,271.188,0.562012,0.432556,-0.440613,0.550354
0,0,-0.125,9.45,0.12,2.26,-0.25,76.25,271.188,0.562012,0.432556,-0.440613,0.550354
-0.0625,-0.1875,-0.0625,9.45,0.1,2.27,-0.25,76.25,271.188,0.562012,0.432556,-0.440613,0.550354
0.0625,-0.125,0.0625,9.45,0.11,2.24,-0.25,76.25,271.188,0.562012,0.432556,-0.440613,0.550354
-0.0625,0.125,-0.125,9.43,0.14,2.29,-0.25,76.25,271.188,0.562012,0.432556,-0.440613,0.550354
0.0625,0,0,9.46,0.11,2.29,-0.25,76.25,271.188,0.562012,0.432556,-0.440613,0.550354
-0.0625,0,0.0625,9.44,0.11,2.29,-0.25,76.25,271.188,0.562012,0.432556,-0.440613,0.550354
0.125,0.125,-0.0625,9.44,0.09,2.31,-0.25,76.25,271.188,0.562012,0.432556,-0.440613,0.550354
-0.125,0,0.125,9.46,0.13,2.26,-0.25,76.25,271.188,0.562012,0.432556,-0.440613,0.550354
0.0625,-0.125,0,9.44,0.11,2.26,-0.25,76.25,271.188,0.562012,0.432556,-0.440613,0.550354
0.0625,0,-0.0625,9.44,0.11,2.26,-0.25,76.25,271.188,0.562012,0.432556,-0.440613,0.550354
0,-0.125,0,9.45,0.11,2.26,-0.25,76.25,271.188,0.562012,0.432556,-0.440613,0.550354
0,0.0625,0,9.46,0.13,2.3,-0.25,76.25,271.188,0.562012,0.432556,-0.440613,0.550354
0,0,0.0625,9.45,0.11,2.25,-0.25,76.25,271.188,0.562012,0.432556,-0.440613,0.550354
0,0,-0.0625,9.44,0.1,2.28,-0.25,76.25,271.188,0.562012,0.432556,-0.440613,0.550354
-0.0625,0,0.0625,9.44,0.11,2.26,-0.25,76.25,271.188,0.562012,0.432556,-0.440613,0.550354
0,0.0625,-0.125,9.46,0.11,2.26,-0.25,76.25,271.188,0.562012,0.432556,-0.440613,0.550354
0.0625,0.0625,0.125,9.44,0.11,2.3,-0.25,76.25,271.188,0.562012,0.432556,-0.440613,0.550354
0,0.0625,-0.0625,9.45,0.11,2.27,-0.25,76.25,271.188,0.562012,0.432556,-0.440613,0.550354
0,0.125,0.0625,9.46,0.13,2.26,-0.25,76.25,271.188,0.562012,0.432556,-0.440613,0.550354
0.1875,0,0,9.43,0.13,2.27,-0.25,76.25,271.188,0.562012,0.432556,-0.440613,0.550354
0.125,0.1875,0,9.45,0.12,2.27,-0.25,76.25,271.188,0.562012,0.432556,-0.440613,0.550354
0,-0.0625,0.1875,9.44,0.12,2.27,-0.25,76.25,271.188,0.562012,0.432556,-0.440613,0.550354
0,-0.125,0,9.45,0.11,2.26,-0.25,76.25,271.188,0.562012,0.432556,-0.440613,0.550354
0.125,-0.1875,0.125,9.43,0.12,2.28,-0.25,76.25,271.188,0.562012,0.432556,-0.440613,0.550354
0.0625,-0.0625,-0.0625,9.45,0.12,2.28,-0.25,76.25,271.188,0.562012,0.432556,-0.440613,0.550354
0,-0.125,-0.125,9.43,0.12,2.28,-0.25,76.25,271.188,0.562012,0.432556,-0.440613,0.550354
-0.0625,-0.0625,-0.125,9.44,0.12,2.29,-0.25,76.25,271.188,0.562012,0.432556,-0.440613,0.550354
0,0,0.0625,9.43,0.1,2.27,-0.25,76.25,271.188,0.562012,0.432556,-0.440613,0.550354
-0.0625,-0.25,0,9.46,0.13,2.28,-0.25,76.25,271.188,0.562012,0.432556,-0.440613,0.550354
0,0,-0.125,9.45,0.1,2.28,-0.25,76.25,271.188,0.562012,0.432556,-0.440613,0.550354
0,0.0625,-0.0625,9.45,0.11,2.28,-0.25,76.25,271.188,0.562012,0.432556,-0.440613,0.550354
0,0.125,-0.0625,9.47,0.09,2.29,-0.25,76.25,271.188,0.562012,0.432556,-0.440613,0.550354
-0.0625,0,0,9.45,0.11,2.26,-0.25,76.25,271.188,0.562012,0.432556,-0.440613,0.550354
0.0625,0.0625,0,9.44,0.13,2.29,-0.25,76.25,271.188,0.562012,0.432556,-0.440613,0.550354
-0.0625,0.1875,-0.125,9.43,0.13,2.3,-0.25,76.25,271.188,0.562012,0.432556,-0.440613,0.550354
-0.25,0.125,0,9.46,0.11,2.3,-0.25,76.25,271.188,0.562012,0.432556,-0.440613,0.550354
0.0625,-0.0625,0,9.44,0.11,2.25,-0.25,76.25,271.188,0.562012,0.432556,-0.440613,0.550354
-0.0625,-0.0625,-0.125,9.44,0.11,2.27,-0.25,76.25,271.188,0.562012,0.432556,-0.440613,0.550354
0.0625,-0.1875,0.125,9.45,0.11,2.29,-0.25,76.25,271.188,0.562012,0.432556,-0.440613,0.550354
-0.0625,-0.1875,0,9.45,0.11,2.29,-0.25,76.25,271.188,0.562012,0.432556,-0.440613,0.550354
0,-0.125,-0.0625,9.46,0.13,2.26,-0.25,76.25,271.188,0.562012,0.432556,-0.440613,0.550354
-0.125,-0.0625,-0.0625,9.45,0.11,2.27,-0.25,76.25,271.188,0.562012,0.432556,-0.440613,0.550354
0,0,-0.0625,9.45,0.11,2.26,-0.25,76.25,271.188,0.562012,0.432556,-0.440613,0.550354
0,0.0625,-0.125,9.44,0.11,2.28,-0.25,76.25,271.188,0.562012,0.432556,-0.440613,0.550354
0,0.0625,-0.125,9.46,0.11,2.28,-0.25,76.25,271.188,0.562012,0.432556,-0.440613,0.550354
0,-0.125,0.0625,9.44,0.11,2.28,-0.25,76.25,271.188,0.562012,0.432556,-0.440613,0.550354
0.0625,0,0.125,9.43,0.12,2.27,-0.25,76.25,271.188,0.562012,0.432556,-0.440613,0.550354
0.125,0,0,9.44,0.13,2.25,-0.25,76.25,271.188,0.562012,0.432556,-0.440613,0.550354
0,-0.125,-0.0625,9.45,0.12,2.27,-0.25,76.25,271.188,0.562012,0.432556,-0.440613,0.550354
0.0625,0.0625,0.0625,9.45,0.12,2.27,-0.25,76.25,271.188,0.562012,0.432556,-0.440613,0.550354
0,0.25,-0.0625,9.45,0.11,2.29,-0.25,76.25,271.188,0.562012,0.432556,-0.440613,0.550354
0,-0.0625,0,9.44,0.12,2.29,-0.25,76.25,271.188,0.562012,0.432556,-0.440613,0.550354
-0.0625,-0.0625,0,9.45,0.11,2.26,-0.25,76.25,271.188,0.562012,0.432556,-0.440613,0.550354
-0.0625,0.125,-0.0625,9.45,0.11,2.26,-0.25,76.25,271.188,0.562012,0.432556,-0.440613,0.550354
-0.0625,0.0625,0,9.43,0.1,2.28,-0.25,76.25,271.188,0.562012,0.432556,-0.440613,0.550354
0.0625,0,0.0625,9.46,0.11,2.28,-0.25,76.25,271.188,0.562012,0.432556,-0.440613,0.550354
-0.125,0.125,-0.0625,9.45,0.09,2.3,-0.25,76.25,271.188,0.562012,0.432556,-0.440613,0.550354
-0.125,0.125,0.0625,9.46,0.11,2.26,-0.25,76.25,271.188,0.562012,0.432556,-0.440613,0.550354
-0.0625,0,0,9.44,0.12,2.3,-0.25,76.25,271.188,0.562012,0.432556,-0.440613,0.550354
0,0.125,-0.0625,9.46,0.11,2.3,-0.25,76.25,271.188,0.562012,0.432556,-0.440613,0.550354
0,-0.1875,0,9.44,0.11,2.29,-0.25,76.25,271.188,0.562012,0.432556,-0.440613,0.550354
0,-0.0625,0,9.46,0.11,2.27,-0.25,76.25,271.188,0.562012,0.432556,-0.440613,0.550354
0,0.1875,-0.0625,9.46,0.11,2.25,-0.25,76.25,271.188,0.562012,0.432556,-0.440613,0.550354
-0.0625,0,0.0625,9.45,0.11,2.26,-0.25,76.25,271.188,0.562012,0.432556,-0.440613,0.550354
-0.0625,0.125,0,9.45,0.11,2.28,-0.25,76.25,271.188,0.562012,0.432556,-0.440613,0.550354
0.0625,0.1875,-0.0625,9.44,0.12,2.28,-0.25,76.25,271.188,0.562012,0.432556,-0.440613,0.550354
-0.0625,0,0,9.45,0.11,2.28,-0.25,76.25,271.188,0.562012,0.432556,-0.440613,0.550354
0,0.125,0.0625,9.46,0.12,2.25,-0.25,76.25,271.188,0.562012,0.432556,-0.440613,0.550354
-0.1875,0.25,0.125,9.44,0.12,2.29,-0.25,76.25,271.188,0.562012,0.432556,-0.440613,0.550354
-0.0625,0,0.0625,9.44,0.1,2.29,-0.25,76.25,271.188,0.562012,0.432556,-0.440613,0.550354
-0.125,0.25,0.0625,9.43,0.14,2.26,-0.25,76.25,271.188,0.562012,0.432556,-0.440613,0.550354
0.125,0,0.0625,9.45,0.12,2.27,-0.25,76.25,271.188,0.562012,0.432556,-0.440613,0.550354
-0.0625,0.1875,-0.125,9.46,0.13,2.27,-0.25,76.25,271.188,0.562012,0.432556,-0.440613,0.550354
0,0,0,9.46,0.1,2.29,-0.25,76.25,271.188,0.562012,0.432556,-0.440613,0.550354
-0.125,-0.125,0.125,9.45,0.11,2.28,-0.25,76.25,271.188,0.562012,0.432556,-0.440613,0.550354
-0.0625,0.1875,0.125,9.44,0.11,2.28,-0.25,76.25,271.188,0.562012,0.432556,-0.440613,0.550354
0.0625,-0.125,0.0625,9.45,0.11,2.29,-0.25,76.25,271.188,0.562012,0.432556,-0.440613,0.550354
0,0.0625,0,9.43,0.12,2.27,-0.25,76.25,271.188,0.562012,0.432556,-0.440613,0.550354
0,-0.125,0,9.45,0.11,2.26,-0.25,76.25,271.188,0.562012,0.432556,-0.440613,0.550354
0,0,-0.125,9.44,0.11,2.26,-0.25,76.25,271.188,0.562012,0.432556,-0.440613,0.550354
0,-0.0625,-0.0625,9.44,0.11,2.29,-0.25,76.25,271.188,0.562012,0.432556,-0.440613,0.550354
-0.0625,0,-0.0625,9.44,0.12,2.29,-0.25,76.25,271.188,0.562012,0.432556,-0.440613,0.550354
0.0625,0.125,0.0625,9.45,0.11,2.28,-0.25,76.25,271.188,0.562012,0.432556,-0.440613,0.550354
0.0625,0,0,9.43,0.11,2.28,-0.25,76.25,271.188,0.562012,0.432556,-0.440613,0.550354
-0.0625,0.125,0,9.45,0.09,2.27,-0.25,76.25,271.188,0.562012,0.432556,-0.440613,0.550354
-0.0625,-0.125,-0.0625,9.44,0.08,2.27,-0.25,76.25,271.188,0.562012,0.432556,-0.440613,0.550354
0.125,-0.5,-0.1875,9.46,0.12,2.31,-0.25,76.25,271.188,0.562012,0.432556,-0.440613,0.550354
0.0625,-0.375,-0.1875,9.45,0.12,2.27,-0.25,76.25,271.188,0.562012,0.432556,-0.440613,0.550354
0.1875,-0.125,-0.1875,9.46,0.16,2.2,-0.25,76.25,271.188,0.562012,0.432556,-0.440613,0.550354
0,-0.0625,-0.0625,9.44,0.09,2.2,-0.25,76.25,271.188,0.562012,0.432556,-0.440613,0.550354
-0.0625,-0.1875,0.1875,9.47,0.11,2.26,-0.25,76.25,271.188,0.562012,0.432556,-0.440613,0.550354
0.0625,0.0625,-0.1875,9.44,0.11,2.24,-0.25,76.25,271.188,0.562012,0.432556,-0.440613,0.550354
-0.0625,-0.25,-0.0625,9.47,0.08,2.26,-0.25,76.25,271.188,0.562012,0.432556,-0.440613,0.550354
0.0625,0.3125,0,9.44,0.11,2.24,-0.25,76.25,271.188,0.562012,0.432556,-0.440613,0.550354
0,0.0625,0.0625,9.43,0.1,2.26,-0.25,76.25,271.188,0.562012,0.432556,-0.440613,0.550354
0.0625,-0.0625,-0.125,9.47,0.12,2.26,-0.25,76.25,271.188,0.562012,0.432556,-0.440613,0.550354
0.125,-0.0625,-0.0625,9.46,0.15,2.28,-0.25,76.25,271.188,0.562012,0.432556,-0.440613,0.550354
-0.0625,0.0625,0,9.45,0.12,2.25,-0.25,76.25,271.188,0.562073,0.432495,-0.440613,0.550354
-0.0625,0.6875,0.0625,9.44,0.13,2.25,-0.25,76.1875,271.188,0.562073,0.432434,-0.440552,0.550415
0,0.8125,0.1875,9.45,0.11,2.26,-0.25,76.1875,271.188,0.562073,0.432434,-0.440552,0.550415
0,0.4375,0.1875,9.44,0.14,2.28,-0.25,76.1875,271.188,0.562073,0.432434,-0.440552,0.550415
0.125,0.5625,0.1875,9.43,0.12,2.27,-0.25,76.1875,271.188,0.562073,0.432434,-0.440552,0.550415
0,0.3125,0.125,9.44,0.11,2.28,-0.25,76.1875,271.188,0.562073,0.432434,-0.440552,0.550415
0,0.5,0.125,9.45,0.12,2.28,-0.25,76.1875,271.188,0.562073,0.432434,-0.440552,0.550415
0.0625,0.1875,0.1875,9.45,0.12,2.31,-0.25,76.1875,271.188,0.562073,0.432434,-0.440552,0.550415
0.0625,0.125,0.0625,9.44,0.14,2.31,-0.25,76.1875,271.188,0.562073,0.432434,-0.440552,0.550415
0.0625,-0.0625,-0.125,9.43,0.12,2.3,-0.25,76.1875,271.188,0.562073,0.432434,-0.440552,0.550415
0.0625,-0.1875,-0.125,9.44,0.11,2.26,-0.25,76.1875,271.188,0.562073,0.432434,-0.440552,0.550415
0,-0.25,0,9.43,0.12,2.26,-0.25,76.1875,271.188,0.562073,0.432434,-0.440552,0.550415
0.0625,-0.4375,0,9.44,0.12,2.27,-0.25,76.1875,271.188,0.562073,0.432434,-0.440552,0.550415
0,-0.5,-0.1875,9.45,0.11,2.29,-0.25,76.1875,271.188,0.562073,0.432434,-0.440552,0.550415
0.0625,-0.5,-0.25,9.47,0.11,2.27,-0.25,76.1875,271.188,0.562073,0.432434,-0.440552,0.550415
-0.0625,-0.5625,-0.125,9.45,0.12,2.27,-0.25,76.1875,271.188,0.562073,0.432434,-0.440552,0.550415
-0.0625,-0.3125,-0.25,9.44,0.11,2.28,-0.25,76.1875,271.188,0.562073,0.432434,-0.440552,0.550415
0,-0.375,-0.125,9.46,0.13,2.26,-0.25,76.1875,271.188,0.562073,0.432434,-0.440552,0.550415
0.0625,-0.4375,-0.125,9.47,0.11,2.26,-0.25,76.1875,271.188,0.562073,0.432434,-0.440552,0.550415
0,-0.1875,0.0625,9.44,0.1,2.3,-0.25,76.1875,271.188,0.562073,0.432434,-0.440552,0.550415
0,-0.1875,-0.125,9.44,0.11,2.27,-0.25,76.1875,271.188,0.562073,0.432434,-0.440552,0.550415
0,0,0,9.47,0.11,2.27,-0.25,76.1875,271.188,0.562073,0.432434,-0.440552,0.550415
0,0.1875,0.125,9.47,0.13,2.25,-0.25,76.1875,271.188,0.562073,0.432434,-0.440552,0.550415
-0.0625,0.125,0.125,9.44,0.11,2.28,-0.25,76.1875,271.188,0.562073,0.432434,-0.440552,0.550415
0,0.3125,0,9.45,0.12,2.3,-0.25,76.1875,271.188,0.562073,0.432434,-0.440552,0.550415
0,0.25,0.1875,9.43,0.12,2.3,-0.25,76.1875,271.188,0.562073,0.432434,-0.440552,0.550415
0,0.1875,0.0625,9.48,0.05,2.16,-0.25,76.1875,271.188,0.562073,0.432434,-0.440552,0.550415
0.25,0.5,0.5,9.17,0.31,2.55,-0.25,76.1875,271.188,0.562073,0.432434,-0.440552,0.550415
0.3125,-0.5625,0.5625,9.7,0,2.03,-0.25,76.1875,271.188,0.562073,0.432434,-0.440552,0.550415
-0.375,-0.3125,-0.125,9.28,0.11,2.2,-0.25,76.1875,271.188,0.562073,0.432434,-0.440552,0.550415
0.25,-0.375,-0.3125,9.48,0.12,2.2,-0.25,76.1875,271.188,0.562073,0.432434,-0.440552,0.550415
0.125,0.0625,-0.25,9.38,0.18,2.37,-0.25,76.1875,271.188,0.562073,0.432434,-0.440552,0.550415
-0.0625,0.1875,0.25,9.59,0.04,2.16,-0.25,76.1875,271.188,0.562073,0.432434,-0.440552,0.550415
-0.0625,0.5,0.3125,9.5,0.11,2.27,-0.25,76.1875,271.188,0.562073,0.432434,-0.440552,0.550415
0.0625,1.1875,0.375,9.43,0.08,2.35,-0.25,76.1875,271.188,0.562195,0.432312,-0.44043,0.550476
0,1.8125,0.375,9.39,0.12,2.35,-0.25,76.1875,271.188,0.562256,0.432251,-0.440369,0.550537
-0.0625,1.25,0.1875,9.46,0.11,2.25,-0.25,76.1875,271.188,0.562317,0.43219,-0.440308,0.550598
-0.125,1.125,0.375,9.42,0.1,2.26,-0.25,76.125,271.188,0.562317,0.43219,-0.440247,0.550598
-0.0625,0.625,0.125,9.38,0.1,2.29,-0.25,76.125,271.188,0.562317,0.43219,-0.440247,0.550598
0,-0.6875,-0.25,9.39,0.1,2.29,-0.25,76.1875,271.188,0.562256,0.432251,-0.440308,0.550537
0,-0.6875,-0.25,9.54,0.15,2.07,-0.1875,76.125,271.188,0.562378,0.431946,-0.440125,0.550781
-0.0625,5.0625,1.25,9.96,0.2,2.07,-0.0625,76,271.125,0.562683,0.431274,-0.439697,0.551392
-0.1875,11.8125,3.5,9.95,0.26,2.13,0.125,75.8125,271.062,0.56311,0.430176,-0.439026,0.552429
-0.5,19.25,6.0625,10.17,0.16,2.01,0.125,75.8125,271.062,0.56311,0.430176,-0.439026,0.552429
-1.5625,27.125,8.0625,9.89,0.22,2.01,0.4375,75.5625,271,0.563782,0.428528,-0.43811,0.553711
-1.5625,27.125,8.0625,10.62,0.16,1.89,1.25,74.8125,270.812,0.565674,0.423889,-0.435364,0.557495
-1.375,50,15.5,10.24,0.18,2.06,1.9375,74.1875,270.625,0.567017,0.420227,-0.433228,0.560547
-1.375,60.8125,19.5,10.24,-0.17,2.06,2.625,73.5,270.375,0.568481,0.415955,-0.430664,0.564209
0.4375,71.4375,23.4375,10.19,-0.97,2.09,2.625,73.5,270.375,0.568481,0.415955,-0.430664,0.564209
-0.625,77.9375,34.5,9.35,-0.27,2.26,3.5625,72.75,270.062,0.569702,0.41095,-0.428162,0.568542
-2.3125,81.5,36.8125,9.3,0.51,2.77,5.125,71.0625,269.75,0.572693,0.400452,-0.422241,0.577454
1.8125,87.1875,27.375,9.31,0.43,3.41,5.5625,70.1875,269.25,0.574402,0.395325,-0.418762,0.581787
2.625,87.6875,26.8125,9.28,0.12,3.41,6.125,69.3125,269.25,0.575989,0.389893,-0.415466,0.586182
0.3125,88.0625,30.25,9.07,-0.11,3.41,6.125,69.3125,268.938,0.575989,0.389893,-0.415466,0.586182
-0.375,89.3125,29.125,8.89,-0.49,3.26,6.625,68.4375,268.688,0.577637,0.38446,-0.412048,0.590515
-0.625,90.25,28.0625,9.06,-0.69,3.31,7.4375,66.5625,268.25,0.581238,0.373169,-0.404907,0.599121
-0.8125,94.1875,28.6875,9.24,-0.41,3.64,7.75,65.5625,268,0.583191,0.367004,-0.401001,0.603699
-1.1875,100.062,29.5,9.05,-0.33,3.64,8.125,64.5625,267.75,0.585205,0.360596,-0.39679,0.608337
-1.3125,104.625,29.625,8.96,-0.21,3.79,8.125,64.5625,267.75,0.585205,0.360596,-0.39679,0.608337
-1,108.188,28.8125,8.83,-0.07,4,8.375,63.4375,267.5,0.587341,0.354004,-0.392334,0.612976
-1.75,109.25,27.5625,8.26,-0.29,4.5,8.75,62.375,267.312,0.591858,0.34082,-0.383423,0.621704
-3.3125,105.688,24,7.61,-0.52,5.38,8.875,60.375,267.062,0.594116,0.335083,-0.379456,0.625122
-4.0625,94.375,17.6875,7.99,-0.84,5.38,8.9375,59.5625,267.062,0.596191,0.329773,-0.376038,0.628052
-7.5625,84,15.375,6.56,-0.17,4.97,8.9375,59.5625,267,0.596191,0.329773,-0.376038,0.628052
-10.6875,65.8125,14.125,7.06,-0.22,6.16,9.125,58.9375,266.938,0.597778,0.325317,-0.373657,0.630249
-15.75,46,14.6875,6.6,-0.35,6.07,9.6875,58.1875,266.938,0.599487,0.319031,-0.372559,0.632446
-16.875,24.3125,11.625,6.07,-0.92,4.74,9.875,58.1875,266.938,0.599731,0.318115,-0.37323,0.632324
-12.3125,2.9375,4,5.89,-1.7,4.74,9.875,58.3125,267,0.599609,0.318909,-0.374146,0.631531
-4.5625,-16,-4.875,6.47,-1.7,4.49,9.875,58.3125,267,0.599609,0.318909,-0.374146,0.631531
2.6875,-31.375,-10.8125,7.22,-1.36,4.61,9.75,58.6875,267.062,0.599121,0.321106,-0.375305,0.630188
7.0625,-40.375,-13.875,7.71,-0.87,4.88,9.5625,59.0625,267.125,0.597595,0.327209,-0.37793,0.626892
7.5,-43.4375,-15.6875,8.35,-0.66,4.83,9.125,59.9375,267.312,0.596924,0.330322,-0.379272,0.625061
6.4375,-42.625,-16.4375,8.48,-0.61,4.71,8.875,59.9375,267.312,0.596436,0.333191,-0.380493,0.623291
5.6875,-39,-17.125,8.73,-0.58,4.65,8.875,60.3125,267.438,0.596436,0.333191,-0.380493,0.623291
3.4375,-33.375,-14.5625,9.72,-0.54,5.06,8.6875,60.6875,267.562,0.596008,0.335632,-0.381531,0.621704
-1.9375,-22.25,-6.1875,9.24,-0.07,3.9,8.6875,61,267.625,0.59552,0.337402,-0.38324,0.620178
-2.8125,-10.875,-2.25,9.82,-0.5,3.93,8.6875,60.9375,267.625,0.595703,0.337036,-0.383057,0.620361
-0.75,5.375,0.8125,9.86,-0.61,3.79,8.75,60.75,267.625,0.59613,0.335754,-0.38208,0.621216
0.4375,21.25,4.375,9.38,-0.61,4.02,8.75,60.75,267.625,0.59613,0.335754,-0.38208,0.621216
0.6875,32.1875,7.3125,9.58,-0.62,4.33,8.75,60.4375,267.562,0.596802,0.333862,-0.380615,0.622498
1.625,43.1875,11.625,9.71,-0.41,4.97,8.8125,60,267.438,0.597473,0.328003,-0.376648,0.626648
-1.125,51.3125,17.6875,9.05,-0.05,4.69,9.25,58.9375,267.188,0.598999,0.324036,-0.374695,0.629089
-5.375,56.3125,21.5625,8.45,-0.29,5.31,9.25,58.9375,267.188,0.599976,0.319641,-0.372864,0.631531
-10.375,59.1875,22.3125,7.91,-0.56,5.12,9.5625,58.3125,267.062,0.599976,0.319641,-0.372864,0.631531
-12,59.1875,17.6875,7.24,-0.94,5.02,9.75,57.6875,266.938,0.601196,0.315308,-0.370972,0.633606
-10.9375,56.875,7.875,6.78,-1.08,5.12,9.8125,57.1875,267,0.604919,0.308105,-0.366699,0.636169
-10.625,53.375,-1.625,7.31,-0.97,5.47,9.6875,56.1875,267.25,0.607056,0.305054,-0.364624,0.63678
-11.1875,49.375,-6.0625,7.55,-0.89,5.43,9.625,55.75,267.375,0.60907,0.302307,-0.362732,0.637268
-11,44.625,-6.5,7.72,-0.86,5.26,9.625,55.75,267.375,0.60907,0.302307,-0.362732,0.637268
-9.5625,39.375,-4.9375,7.75,-0.92,5.28,9.5625,55.375,267.5,0.610779,0.299866,-0.361084,0.637695
-7.25,34.8125,-3.5625,7.57,-1,5.3,9.5,55.0625,267.562,0.612183,0.297668,-0.359558,0.638672
-4.6875,30.5625,-3.125,7.49,-1.02,5.29,9.3125,54.5625,267.688,0.614441,0.294495,-0.356873,0.639038
-2.4375,25.8125,-3,7.46,-1.01,5.37,9.3125,54.5625,267.688,0.614441,0.294495,-0.356873,0.639404
-0.8125,20.1875,-2.75,7.49,-0.93,5.49,9.25,54.375,267.75,0.615173,0.293396,-0.355835,0.639404
0.0625,15.125,-2.375,7.56,-0.88,5.51,9.1875,54.25,267.812,0.615784,0.292664,-0.35498,0.639648
0.875,11.3125,-2.0625,7.69,-0.85,5.53,9.125,54.125,267.812,0.616211,0.292175,-0.354309,0.639832
1.625,10.125,-1.9375,7.83,-0.85,5.42,9,53.9375,267.875,0.617004,0.29126,-0.352783,0.64032
2.25,12.0625,-2.125,8.11,-0.74,5.48,8.9375,53.75,267.875,0.617554,0.290588,-0.351807,0.640625
2.125,16.5,-2.25,8.2,-0.7,5.53,8.9375,53.75,267.875,0.617554,0.290588,-0.351807,0.640625
1.6875,22,-1.75,8.27,-0.71,5.54,8.8125,53.5625,267.875,0.618286,0.289551,-0.350464,0.641113
1.375,28.625,-1.25,8.21,-0.74,5.54,8.75,53.25,267.938,0.619141,0.286255,-0.346985,0.642639
1.375,35.0625,-0.8125,8.07,-0.82,5.5,8.5625,52.5625,267.938,0.621399,0.284119,-0.344666,0.643677
1.625,41.375,-1,7.97,-0.83,5.58,8.5625,52.5625,267.938,0.621399,0.284119,-0.344666,0.643677
2.3125,46.625,-0.875,7.95,-0.79,5.62,8.4375,52.125,268,0.622681,0.281921,-0.342224,0.644714
2.8125,50.9375,0.0625,7.91,-0.74,5.76,8.3125,51.6875,268,0.624084,0.27948,-0.339478,0.645874
3.4375,53.3125,1.8125,7.61,-0.79,5.88,8.1875,51.1875,268,0.625427,0.276733,-0.336548,0.647339
4.5625,53.8125,3.5625,7.36,-0.82,5.93,8,50.125,267.938,0.627747,0.271179,-0.330505,0.650452
5.375,52.625,4,7.1,-0.83,6.05,7.875,49.625,267.875,0.628845,0.268616,-0.327637,0.651917
5.375,50.625,2.875,6.95,-0.82,6.17,7.875,49.625,267.875,0.628845,0.268616,-0.327637,0.651917
4.75,48.75,1.3125,6.97,-0.75,6.39,7.8125,49.1875,267.875,0.630066,0.266174,-0.324768,0.653259
3.875,47.1875,0.25,6.99,-0.68,6.45,7.6875,48.6875,267.875,0.631226,0.261292,-0.319397,0.655457
2.125,46.875,-0.6875,7.03,-0.57,6.67,7.5,47.8125,268,0.633972,0.258606,-0.316833,0.656372
-1.125,48.625,-2.0625,6.94,-0.49,7.05,7.5,47.8125,268,0.633972,0.255432,-0.314209,0.657166
-5.6875,53.0625,-4.8125,6.68,-0.43,7.14,7.4375,47.3125,268.062,0.635742,0.255432,-0.314209,0.657166
-11.3125,59,-10.3125,6.58,-0.45,7.23,7.375,46.75,268.25,0.638123,0.251831,-0.311401,0.657532
-17.6875,64.3125,-16.25,6.6,-0.42,7.32,7.3125,46.125,268.5,0.641113,0.243225,-0.305786,0.657227
-23.75,67.5625,-20.625,6.54,-0.47,7.28,7.1875,44.9375,269.188,0.64801,0.238525,-0.303284,0.656616
-28.5,66.6875,-22.4375,6.47,-0.58,7.18,7.25,44.375,269.188,0.651428,0.234009,-0.30127,0.655823
-31.1875,60.8125,-21.75,6.37,-0.74,7.05,7.25,44.375,269.562,0.651428,0.234009,-0.30127,0.655823
-32.0625,51.75,-19.625,6.22,-0.84,6.98,7.3125,43.875,269.938,0.65448,0.229858,-0.299805,0.654968
-31.25,42.25,-17.6875,6.1,-1.02,6.67,7.375,43.5,270.25,0.657104,0.223206,-0.298218,0.653015
-28.8125,33.625,-16.5,6.18,-1.09,6.53,7.5625,42.9375,270.812,0.661438,0.220703,-0.297791,0.651978
-25.1875,27.8125,-15.9375,6.31,-1.14,6.42,7.5625,42.9375,270.812,0.661438,0.220703,-0.297791,0.651062
-20.625,24.125,-15.4375,6.52,-1.27,6.18,7.5625,42.75,271.062,0.66333,0.218567,-0.297302,0.651062
-14.875,21.375,-14.1875,6.59,-1.37,6.04,7.5625,42.5625,271.25,0.664917,0.216919,-0.296631,0.650269
-7.1875,19.4375,-12.1875,6.69,-1.46,5.9,7.5,42.375,271.375,0.666199,0.215027,-0.294495,0.649536
0.5,18,-10.0625,6.74,-1.42,5.95,7.1875,42,271.562,0.66803,0.2146,-0.292664,0.649658
8.6875,21.0625,-8.75,6.9,-1.25,6.07,6.9375,41.8125,271.562,0.668823,0.214233,-0.290222,0.650024
15.75,26.0625,-8.125,7.05,-1.14,6.32,6.9375,41.8125,271.625,0.668823,0.214233,-0.290222,0.650024
20.75,33.0625,-6.625,7.09,-1.05,6.46,6.6875,41.5,271.625,0.669617,0.213745,-0.287048,0.650757
25.1875,40.875,-4.625,7.12,-0.99,6.49,6.3125,41.0625,271.562,0.67041,0.213013,-0.283264,0.65332
29.4375,47.9375,-1.1875,7.32,-0.87,6.56,5.6875,40.0625,271.375,0.67157,0.210876,-0.274048,0.655273
33.25,54.8125,3.4375,7.34,-0.81,6.68,5.6875,40.0625,271.375,0.67157,0.210876,-0.268677,0.657776
36.25,62.0625,9.9375,7.65,-0.65,7.51,5.375,39.5,271.188,0.671814,0.209229,-0.268677,0.657776
34.6875,73.0625,17.1875,7.44,-0.17,8,5.0625,38.75,270.938,0.671875,0.206787,-0.262878,0.660828
29.8125,81.6875,22.4375,6.77,-0.09,7.38,4.9375,37.9375,270.625,0.671936,0.199402,-0.250916,0.667664
26.6875,88,25,6.75,-0.48,7.15,4.6875,36.125,270,0.671875,0.195007,-0.244385,0.671387
27.3125,95.5625,27.875,6.67,-0.72,6.87,4.5,36.125,270,0.671753,0.190125,-0.237122,0.675537
31.0625,105.5,31.5625,6.62,-0.89,6.8,4.5,35.125,269.625,0.671753,0.190125,-0.237122,0.675537
36.8125,116.312,35.3125,6.02,-0.95,6.6,4.375,33.9375,269.25,0.671448,0.184814,-0.229004,0.680115
43.3125,127.688,37.1875,5.85,-0.79,6.76,4.125,32.6875,268.812,0.671021,0.179199,-0.219849,0.690125
49.375,140.25,37.75,5.73,-0.57,7.22,3.4375,29.8125,267.875,0.670288,0.166565,-0.198486,0.695435
51.5625,152.25,38.625,4.97,0,8.3,3.4375,29.8125,267.875,0.670288,0.166565,-0.198486,0.695435
49.125,161.438,39.625,4.6,0.1,8.31,3.125,28.25,267.375,0.669922,0.15918,-0.187012,0.700684
45.6875,166.312,39.9375,4.2,0,8.24,2.875,26.625,266.938,0.669495,0.151245,-0.175415,0.705811
44,168.875,38.8125,3.72,-0.25,8.1,2.5625,24.9375,266.5,0.669006,0.143066,-0.151794,0.715393
43.9375,171.812,36.5,3,-0.2,8.67,2,21.5625,265.75,0.668335,0.125977,-0.139587,0.719727
42.5625,177.188,32.75,2.54,-0.03,8.69,2,21.5625,265.75,0.668274,0.116943,-0.127075,0.723572
40.8125,181.438,26.75,2.42,-0.07,8.87,1.625,19.8125,265.438,0.668274,0.116943,-0.127075,0.723572
38.5,185.438,21.5625,2.26,-0.02,8.92,1.3125,18,265.188,0.668518,0.107544,-0.114502,0.726929
37.125,188.125,17.4375,2.08,-0.13,9.02,1,16.1875,265,0.668823,0.0979004,-0.0891724,0.732666
36,185.062,18.4375,1.64,0.22,9.34,0.375,12.625,264.5,0.668579,0.0792236,-0.0770874,0.735352
35.9375,177.5,20.625,1.14,0.14,9.23,0.375,12.625,264.5,0.668579,0.0792236,-0.0770874,0.737854
34.75,167.812,22.125,1,0.2,9.73,0.125,11,264.25,0.66803,0.0706177,-0.0655518,0.737854
31.75,159.438,21.25,0.39,0.11,9.86,-0.125,9.5,264.062,0.667297,0.0623169,-0.0546875,0.740112
28.5625,148.625,18.8125,0.11,0.2,10.51,-0.375,8.0625,263.812,0.666626,0.0545654,-0.0355225,0.743652
22.8125,138.125,16.3125,-0.22,0.45,10.9,-0.625,5.5,263.688,0.665344,0.039917,-0.0276489,0.744934
12.9375,125.812,14.375,0.44,0.69,10.96,-0.625,5.5,263.5,0.664673,0.0326538,-0.0210571,0.746094
1.625,116.062,14.25,-0.11,0.43,9.33,-0.625,4.375,263.375,0.664673,0.0326538,-0.0210571,0.746094
2.875,103.125,14.0625,-1.34,-0.18,8.22,-0.6875,3.375,263.25,0.66394,0.0263062,-0.0151367,0.747131
13,84.625,9.25,-1.42,-0.38,8.87,-0.8125,2.5625,263.125,0.663452,0.0216675,-0.00958252,0.747864
15,75.3125,3.5625,-1.42,0.05,10.36,-1.0625,1.25,263.062,0.66333,0.0144043,-0.000305176,0.748169
9.9375,61.875,-2.0625,-1.1,0.27,9.78,-1.0625,1.25,263.062,0.66333,0.0144043,-0.000305176,0.748169
4.9375,52.3125,-5.4375,-0.65,0.35,9.61,-1.0625,0.75,263.125,0.663696,0.0113525,0.00292969,0.747925
4.0625,43.125,-6.125,-0.45,0.42,9.47,-1.125,0.3125,263.188,0.664062,0.0088501,0.00561523,0.74762
6.0625,34.5625,-4.9375,-0.45,0.43,9.94,-1.1875,0,263.25,0.664368,0.00701904,0.00793457,0.747192
3.625,27.5625,-3.3125,-0.43,0.56,9.99,-1.1875,-0.4375,263.25,0.664673,0.00408936,0.0109863,0.74707
0.3125,22.3125,-2.125,-0.59,0.47,9.37,-1.1875,-0.4375,263.312,0.664795,0.00299072,0.0119019,0.746948
0.1875,16.75,-2.4375,-0.82,0.14,9.41,-1.1875,-0.625,263.312,0.664795,0.00299072,0.0119019,0.746948
-0.0625,10.3125,-2.9375,-0.62,0.03,9.14,-1.1875,-0.75,263.312,0.664978,0.00238037,0.0125122,0.746765
0.75,3.4375,-2.1875,-0.42,0.12,9.55,-1.25,-0.75,263.375,0.6651,0.00219727,0.0126343,0.746643
0.4375,-1.875,-0.3125,-0.26,0.29,9.72,-1.1875,-0.6875,263.375,0.665039,0.00250244,0.0123291,0.746704
-1.0625,-4.1875,1.125,-0.36,0.27,9.74,-1.1875,-0.6875,263.375,0.665039,0.00250244,0.0123291,0.746704
-2.6875,-4.375,0.625,-0.25,0.22,9.53,-1.1875,-0.625,263.312,0.665039,0.00262451,0.0119019,0.746765
-2.625,-3.25,-0.625,-0.1,0.08,9.54,-1.1875,-0.625,263.375,0.665039,0.00268555,0.0115356,0.746704
-1.625,-1.6875,-1.125,-0.04,0,9.42,-1.125,-0.625,263.375,0.665161,0.00268555,0.0113525,0.746582
-0.0625,0.5,-0.8125,-0.12,0,9.43,-1.1875,-0.625,263.375,0.665161,0.00262451,0.0115967,0.746582
1.625,2.5,-0.5625,-0.14,0.1,9.58,-1.1875,-0.625,263.375,0.665222,0.00250244,0.0119629,0.746582
2.3125,4.125,-0.6875,-0.12,0.22,9.72,-1.1875,-0.6875,263.375,0.665222,0.00250244,0.0119629,0.746582
1.6875,5.375,-0.3125,-0.06,0.26,9.75,-1.1875,-0.75,263.375,0.665222,0.0022583,0.0123901,0.746521
-0.1875,6.625,1,-0.17,0.19,9.6,-1.1875,-0.8125,263.375,0.665161,0.00183105,0.0127563,0.746582
-1.125,6.5,2.6875,-0.31,0.12,9.45,-1.1875,-0.875,263.312,0.664734,0.000976562,0.0132446,0.747009
-1.1875,4.375,3.8125,-0.71,0.13,9.43,-1.1875,-0.875,263.312,0.664734,0.000976562,0.0132446,0.747009
-0.5625,0.75,3.0625,-0.82,0.1,9.37,-1.1875,-0.875,263.25,0.66449,0.000976562,0.0133057,0.747131
0.4375,-4.125,0.875,-0.88,0.15,9.49,-1.1875,-0.875,263.25,0.66449,0.0012207,0.0130615,0.747192
0.875,-8.5,-1.8125,-0.47,0.26,9.69,-1.1875,-0.75,263.25,0.664612,0.00183105,0.0126343,0.746948
-0.0625,-11.125,-2.6875,-0.06,0.31,9.7,-1.1875,-0.6875,263.312,0.664856,0.00317383,0.0112915,0.746887
-1.3125,-11.5625,-1.375,0.03,0.14,9.55,-1.1875,-0.5625,263.312,0.664856,0.00372314,0.0105591,0.746887
-2,-10.6875,0.0625,-0.07,0.1,9.57,-1.125,-0.4375,263.312,0.664856,0.00372314,0.0105591,0.746887
-1.6875,-8.4375,0.4375,-0.06,0.1,9.57,-1.125,-0.375,263.312,0.664917,0.00415039,0.00994873,0.746887
-1,-5.25,-0.3125,0,0.11,9.53,-1.125,-0.3125,263.312,0.664917,0.00445557,0.00958252,0.746765
0.3125,-1.0625,-1.3125,0.13,0.04,9.53,-1.125,-0.3125,263.375,0.665039,0.00439453,0.00976562,0.746704
1.1875,2.625,-1.4375,0.12,0.1,9.54,-1.125,-0.3125,263.375,0.665039,0.00439453,0.00976562,0.746704
1.9375,5.625,-0.5625,-0.05,0.13,9.59,-1.1875,-0.375,263.375,0.665039,0.00415039,0.0101929,0.746704
2.1875,7.1875,-0.0625,-0.35,0.17,9.6,-1.1875,-0.4375,263.375,0.665039,0.00384521,0.0107422,0.746704
2.0625,6,-0.5625,-0.58,0.24,9.57,-1.1875,-0.5,263.375,0.665039,0.00354004,0.0111694,0.746704
1.625,3.75,-1.8125,-0.52,0.22,9.61,-1.25,-0.5625,263.375,0.665283,0.00341797,0.0115356,0.74646
0.75,0.3125,-2.375,-0.41,0.21,9.59,-1.25,-0.5625,263.375,0.665466,0.00360107,0.0114136,0.746338
-0.1875,-2.5625,-2.0625,-0.19,0.22,9.67,-1.25,-0.5,263.438,0.665466,0.00360107,0.0114136,0.746338
-1.625,-3.8125,0.25,0.38,0.27,9.83,-1.1875,-0.5,263.438,0.665466,0.00378418,0.0111084,0.746338
-3.3125,-2.875,4.0625,0.1,0.22,9.69,-1.1875,-0.4375,263.375,0.665222,0.00378418,0.0107422,0.746582
-4.1875,-0.375,6,-0.11,0.13,9.56,-1.125,-0.4375,263.312,0.664551,0.00311279,0.010437,0.747192
-3.5,3.625,4.3125,-0.23,0,9.39,-1.125,-0.5,263.25,0.664551,0.00311279,0.010437,0.747192
-1.5625,8.4375,1.125,-0.25,-0.06,9.35,-1.0625,-0.5625,263.25,0.664429,0.00250244,0.0108032,0.747253
1.3125,12.4375,-1.5625,-0.17,-0.05,9.41,-1.125,-0.6875,263.25,0.664551,0.00177002,0.0115967,0.747131
3.5625,14.625,-2.5625,-0.09,0.03,9.5,-1.125,-0.8125,263.312,0.664673,0.0010376,0.0126343,0.747009
4.4375,14.6875,-0.875,-0.28,0.25,9.66,-1.1875,-1,263.312,0.664734,0.000366211,0.0137329,0.746948
3.6875,13.25,1.375,-0.58,0.33,9.7,-1.1875,-1.125,263.312,0.66449,-0.000854492,0.0155029,0.747131
1.9375,10.5,1.9375,-0.81,0.32,9.63,-1.25,-1.25,263.25,0.66449,-0.000854492,0.0155029,0.747131
0.4375,6.3125,1.0625,-0.91,0.3,9.56,-1.25,-1.3125,263.25,0.664429,-0.00128174,0.0158081,0.747192
-0.75,1.25,-0.3125,-0.69,0.15,9.47,-1.25,-1.3125,263.25,0.664429,-0.00140381,0.0158691,0.747192
-1.25,-3.875,-1.1875,-0.51,0.11,9.5,-1.1875,-1.25,263.25,0.664551,-0.000793457,0.0150146,0.74707
-1.5625,-7.9375,-0.625,-0.41,0.12,9.51,-1.1875,-1.1875,263.25,0.664551,-0.000793457,0.0150146,0.74707
-1.75,-10.8125,0.3125,-0.45,0.2,9.63,-1.1875,-1.0625,263.25,0.664551,-0.000305176,0.0144043,0.74707
-2.25,-12.25,0.4375,-0.2,0.19,9.63,-1.125,-1,263.25,0.664551,0.000305176,0.0135498,0.74707
-2.75,-12.125,0.375,-0.12,0.15,9.63,-1.125,-0.875,263.25,0.664612,0.000915527,0.0126953,0.747131
-2.875,-10.3125,0.3125,-0.02,0.09,9.52,-1.125,-0.75,263.25,0.664612,0.00177002,0.0113525,0.747131
-2.0625,-7.5,0.5625,0,0.05,9.52,-1.0625,-0.6875,263.25,0.664612,0.00201416,0.0110474,0.747131
-1.0625,-4.125,0.625,-0.05,0.09,9.56,-1.0625,-0.625,263.25,0.664551,0.00201416,0.0110474,0.747131
-0.125,-1.125,0.4375,-0.1,0.11,9.62,-1.0625,-0.625,263.25,0.664551,0.00195312,0.0111084,0.747131
0.25,1.6875,0.125,-0.11,0.15,9.62,-1.0625,-0.625,263.25,0.664551,0.00195312,0.0111084,0.747131
0.375,4.0625,-0.1875,-0.11,0.07,9.45,-1.0625,-0.6875,263.25,0.664551,0.00170898,0.0113525,0.747131
0.8125,5.0625,0.125,-0.32,0,9.35,-1.0625,-0.75,263.25,0.664551,0.00134277,0.0116577,0.747131
2.0625,4.3125,1,-0.38,0.1,9.54,-1.0625,-0.8125,263.25,0.66449,0.00115967,0.0120239,0.747192
2.5,2.3125,1.3125,-0.44,0.26,9.69,-1.125,-0.8125,263.25,0.664429,0.00115967,0.0123291,0.747253
1.3125,0.9375,1,-0.43,0.3,9.7,-1.125,-0.8125,263.25,0.664368,0.00115967,0.0124512,0.747314
0,0.4375,-0.1875,-0.36,0.21,9.61,-1.125,-0.8125,263.25,0.664368,0.00115967,0.0124512,0.747253
-0.6875,0.1875,-1.25,-0.22,0.09,9.54,-1.125,-0.8125,263.25,0.664429,0.00109863,0.0124512,0.747253
-0.625,0.9375,-1.5,-0.1,0.03,9.51,-1.125,-0.8125,263.25,0.66449,0.000976562,0.0124512,0.747192
0.4375,2.25,-1.0625,-0.13,0.07,9.55,-1.125,-0.875,263.25,0.664612,0.000854492,0.0125732,0.747131
1.375,4.125,-0.75,-0.18,0.15,9.6,-1.125,-0.875,263.312,0.664612,0.000671387,0.0128784,0.74707
2,6.4375,-1.25,-0.16,0.2,9.62,-1.125,-0.9375,263.312,0.664673,0.000366211,0.0133667,0.747009
2,8.6875,-1.5625,-0.16,0.2,9.65,-1.1875,-1.0625,263.312,0.664795,-0.00012207,0.0139771,0.746887
1.625,9.9375,-1.25,-0.34,0.15,9.61,-1.1875,-1.125,263.312,0.664856,-0.000671387,0.0146484,0.746826
0.9375,10.0625,-0.625,-0.44,0.14,9.57,-1.1875,-1.25,263.312,0.664856,-0.00128174,0.0152588,0.746765
0.8125,8.5625,-0.3125,-0.54,0.16,9.5,-1.1875,-1.3125,263.312,0.664856,-0.00177002,0.0158081,0.746765
0.75,6.25,-0.125,-0.5,0.13,9.49,-1.1875,-1.375,263.312,0.664856,-0.00231934,0.0164795,0.746765
0.8125,3.8125,-0.375,-0.42,0.13,9.53,-1.1875,-1.4375,263.312,0.664856,-0.00238037,0.0166626,0.746765
1,2.1875,-0.0625,-0.33,0.14,9.58,-1.1875,-1.4375,263.312,0.664856,-0.00238037,0.0166626,0.746765
0.75,1,0.625,-0.3,0.21,9.63,-1.25,-1.4375,263.312,0.664795,-0.00244141,0.0167847,0.746826
0.3125,0.75,1.5,-0.4,0.22,9.6,-1.25,-1.4375,263.312,0.664734,-0.00250244,0.0168457,0.746887
-0.125,0.875,1.75,-0.49,0.21,9.55,-1.25,-1.5,263.312,0.664612,-0.00256348,0.0169067,0.747009
-0.625,0.0625,1.625,-0.6,0.22,9.59,-1.1875,-1.5,263.25,0.66449,-0.00268555,0.0169678,0.74707
-1.25,-1.375,1.0625,-0.63,0.22,9.56,-1.1875,-1.5,263.25,0.664429,-0.00274658,0.0169067,0.747131
-1.6875,-3.25,0.1875,-0.44,0.11,9.52,-1.1875,-1.5,263.25,0.664429,-0.00274658,0.0166626,0.747131
-1.4375,-4.75,-0.3125,-0.35,0.06,9.49,-1.1875,-1.4375,263.25,0.664429,-0.00262451,0.0163574,0.747131
-1,-5.125,-0.5,-0.23,0.09,9.5,-1.1875,-1.375,263.25,0.664429,-0.00238037,0.0157471,0.747131
-0.25,-3.625,-0.375,-0.12,0.11,9.58,-1.1875,-1.375,263.25,0.664429,-0.0020752,0.015686,0.747131
0.3125,-1.375,-0.25,-0.14,0.17,9.62,-1.1875,-1.3125,263.25,0.66449,-0.0020752,0.015686,0.747131
0.4375,1.1875,0,-0.17,0.14,9.63,-1.1875,-1.375,263.25,0.664429,-0.00238037,0.0159912,0.747131
0.375,3.4375,0.25,-0.28,0.17,9.6,-1.1875,-1.375,263.25,0.664429,-0.00238037,0.0159912,0.747131
0.375,3.6875,0.8125,-0.6,0.2,9.53,-1.125,-1.4375,263.25,0.664368,-0.00280762,0.0163574,0.747253
0.1875,2.5,0.875,-0.62,0.23,9.56,-1.1875,-1.4375,263.25,0.664368,-0.00280762,0.0163574,0.747253
-0.3125,0.375,0.0625,-0.5,0.22,9.58,-1.1875,-1.4375,263.25,0.664368,-0.00280762,0.0163574,0.747253
-0.625,-1.1875,-0.6875,-0.35,0.16,9.56,-1.125,-1.4375,263.25,0.664368,-0.00274658,0.0162354,0.747192
-0.625,-1.375,-0.75,-0.19,0.09,9.53,-1.125,-1.4375,263.25,0.664429,-0.00268555,0.0161133,0.747192
-0.125,-0.5,-0.1875,-0.23,0.11,9.54,-1.125,-1.4375,263.25,0.664429,-0.00268555,0.0161133,0.747192
0.1875,0.6875,0.375,-0.3,0.15,9.58,-1.125,-1.4375,263.25,0.664429,-0.00274658,0.0161743,0.747192
0.3125,1.3125,0.5625,-0.35,0.19,9.62,-1.125,-1.4375,263.25,0.664429,-0.00286865,0.0162354,0.747192
0.0625,1.5,0.625,-0.44,0.17,9.6,-1.125,-1.4375,263.25,0.664368,-0.00299072,0.0162964,0.747192
-0.25,1,0.5625,-0.46,0.15,9.51,-1.125,-1.5,263.25,0.664368,-0.00305176,0.0164185,0.747192
-0.25,0.1875,0.25,-0.44,0.13,9.5,-1.125,-1.5,263.25,0.664368,-0.00311279,0.0164185,0.747192
0,-0.3125,0,-0.41,0.14,9.55,-1.125,-1.5,263.25,0.664368,-0.00317383,0.0164795,0.747192
0.25,-0.5625,-0.3125,-0.32,0.21,9.61,-1.125,-1.5,263.25,0.664368,-0.00317383,0.0164795,0.747192
0.0625,-0.4375,-0.1875,-0.29,0.21,9.62,-1.125,-1.5,263.25,0.664368,-0.00323486,0.0164795,0.747192
-0.4375,-0.5,0.3125,-0.35,0.18,9.61,-1.125,-1.5,263.25,0.664368,-0.00323486,0.0164795,0.747192
-0.5,-0.3125,0.3125,-0.4,0.16,9.52,-1.125,-1.5,263.25,0.664368,-0.00323486,0.0164795,0.747192
-0.625,-0.1875,0.0625,-0.39,0.14,9.58,-1.125,-1.5,263.25,0.664368,-0.0032959,0.0164795,0.747192
-0.375,-0.0625,-0.125,-0.32,0.14,9.53,-1.125,-1.5,263.25,0.664368,-0.0032959,0.0164795,0.747192
-0.3125,0.0625,-0.5,-0.28,0.14,9.6,-1.125,-1.5,263.25,0.664368,-0.00335693,0.0164795,0.747192
-0.0625,0.5625,-0.125,-0.29,0.15,9.59,-1.125,-1.5,263.25,0.664368,-0.00335693,0.0164795,0.747192
-0.125,1.375,0.3125,-0.37,0.15,9.55,-1.125,-1.5,263.25,0.664368,-0.00341797,0.0165405,0.747192
-0.125,1.625,0.4375,-0.45,0.16,9.55,-1.125,-1.5625,263.25,0.664368,-0.00360107,0.0166626,0.747192
-0.125,1.0625,0.3125,-0.53,0.18,9.54,-1.125,-1.5625,263.25,0.664368,-0.00366211,0.0167847,0.747192
-0.1875,-0.0625,-0.25,-0.52,0.19,9.62,-1.125,-1.5625,263.25,0.664368,-0.00372314,0.0167847,0.747192
-0.5,-1.5625,-0.625,-0.45,0.17,9.61,-1.125,-1.5625,263.25,0.664429,-0.00372314,0.0167847,0.747131
-0.8125,-2.8125,-0.8125,-0.36,0.14,9.55,-1.125,-1.5625,263.25,0.66449,-0.00360107,0.0166016,0.747131
-0.625,-3.375,-0.75,-0.29,0.11,9.61,-1.125,-1.5,263.25,0.664551,-0.003479,0.0163574,0.74707
-0.4375,-2.9375,-0.4375,-0.18,0.14,9.65,-1.125,-1.5,263.25,0.664551,-0.0032959,0.0161743,0.74707
-0.125,-1.8125,-0.25,-0.22,0.14,9.67,-1.125,-1.4375,263.25,0.664551,-0.00317383,0.0161133,0.74707
0,-0.125,-0.1875,-0.29,0.18,9.67,-1.125,-1.4375,263.25,0.664551,-0.00317383,0.0161133,0.74707
-0.125,1.25,-0.5625,-0.31,0.18,9.64,-1.125,-1.5,263.25,0.664551,-0.00323486,0.0161743,0.74707
-0.4375,2,-0.875,-0.3,0.13,9.61,-1.125,-1.5,263.312,0.664612,-0.00335693,0.0162964,0.747009
-0.8125,2,-0.375,-0.36,0.11,9.58,-1.125,-1.5,263.312,0.664612,-0.00354004,0.0163574,0.747009
-0.75,1.0625,0.3125,-0.47,0.09,9.5,-1.0625,-1.5625,263.312,0.664612,-0.00372314,0.0163574,0.747009
-0.375,0.0625,0.375,-0.45,0.15,9.58,-1.0625,-1.5625,263.312,0.664612,-0.00378418,0.0163574,0.747009
0.1875,-0.9375,-0.3125,-0.33,0.17,9.61,-1.0625,-1.5625,263.312,0.664612,-0.00372314,0.0163574,0.747009
0.3125,-1.1875,-0.6875,-0.22,0.14,9.66,-1.0625,-1.5,263.312,0.664612,-0.00366211,0.0162964,0.747009
0.0625,-0.625,-0.375,-0.22,0.16,9.67,-1.0625,-1.5,263.312,0.664612,-0.00360107,0.0162354,0.747009
0.0625,0.5625,-0.0625,-0.31,0.16,9.65,-1.0625,-1.5,263.312,0.664612,-0.00366211,0.0162354,0.747009
0.125,1.8125,-0.125,-0.29,0.14,9.65,-1.0625,-1.5625,263.312,0.664612,-0.00372314,0.0163574,0.747009
0.1875,3.0625,-0.375,-0.31,0.15,9.62,-1.0625,-1.5625,263.312,0.664612,-0.00396729,0.0165405,0.747009
-0.125,2.75,0.25,-0.42,0.16,9.62,-1.0625,-1.5625,263.312,0.664612,-0.00415039,0.0166626,0.747009
-0.3125,1.5625,0.8125,-0.58,0.11,9.55,-1.0625,-1.625,263.312,0.664551,-0.00427246,0.0167847,0.747009
-0.4375,-0.1875,0.75,-0.53,0.1,9.57,-1.0625,-1.625,263.25,0.664551,-0.00439453,0.0168457,0.74707
-0.1875,-1.125,0.0625,-0.4,0.1,9.61,-1.0625,-1.625,263.25,0.664551,-0.00439453,0.0167847,0.74707
0,-1.6875,-0.4375,-0.2,0.19,9.69,-1.0625,-1.625,263.25,0.664551,-0.00427246,0.0167236,0.74707
-0.0625,-1.375,0,-0.23,0.18,9.7,-1.0625,-1.5625,263.25,0.664551,-0.00421143,0.0166016,0.74707
-0.5,-0.125,0.375,-0.3,0.16,9.64,-1.0625,-1.5625,263.25,0.664551,-0.00421143,0.0166016,0.74707
-0.75,0.75,0.625,-0.38,0.11,9.57,-1.0625,-1.625,263.25,0.66449,-0.00427246,0.0166016,0.747131
-0.4375,0.8125,0.625,-0.45,0.14,9.57,-1.0625,-1.625,263.25,0.664429,-0.0043335,0.0166626,0.747131
-0.1875,0.625,0.5,-0.4,0.13,9.58,-1.0625,-1.625,263.25,0.664429,-0.00445557,0.0167236,0.747131
0,0.5625,-0.0625,-0.33,0.12,9.58,-1.0625,-1.625,263.25,0.664429,-0.00445557,0.0167236,0.747131
0.1875,0.6875,-0.125,-0.23,0.12,9.64,-1.0625,-1.625,263.25,0.664429,-0.0045166,0.0167847,0.747131
0.3125,1.6875,0.125,-0.26,0.16,9.71,-1.0625,-1.625,263.25,0.664429,-0.00457764,0.0168457,0.747131
0.0625,3,0.75,-0.37,0.2,9.7,-1.0625,-1.6875,263.25,0.664368,-0.00482178,0.0170288,0.747192
-0.4375,3.875,0.75,-0.42,0.16,9.64,-1.0625,-1.6875,263.25,0.664368,-0.00506592,0.0172729,0.747192
-0.6875,4.125,0.5,-0.46,0.12,9.58,-1.0625,-1.75,263.25,0.664307,-0.00537109,0.0174561,0.747192
-0.625,3.3125,0.4375,-0.48,0.07,9.52,-1.0625,-1.8125,263.25,0.664307,-0.00567627,0.0176392,0.747192
0,2.25,0.375,-0.45,0.11,9.57,-1.0625,-1.8125,263.25,0.664307,-0.00585938,0.0177612,0.747192
0.4375,1.0625,0.5625,-0.44,0.18,9.64,-1.0625,-1.8125,263.25,0.664307,-0.00592041,0.0178223,0.747192
0.5,0.4375,0.5625,-0.36,0.19,9.66,-1.0625,-1.8125,263.25,0.664307,-0.00598145,0.0178223,0.747192
0.0625,0.125,0.6875,-0.41,0.17,9.63,-1.0625,-1.8125,263.25,0.664307,-0.00598145,0.0178223,0.747253
-0.625,-0.375,1.125,-0.43,0.11,9.59,-1.0625,-1.8125,263.25,0.664185,-0.00604248,0.0178223,0.747314
-0.5625,-0.6875,1.0625,-0.39,0.12,9.58,-1.0625,-1.8125,263.25,0.664124,-0.00598145,0.0177612,0.747375
-0.125,-0.5625,0.875,-0.32,0.15,9.63,-1.0625,-1.8125,263.188,0.664062,-0.00598145,0.0177612,0.747437
0,-0.1875,0.875,-0.3,0.15,9.61,-1.0625,-1.8125,263.188,0.664001,-0.00598145,0.0177612,0.747498
0.4375,0.5625,1.125,-0.33,0.1,9.61,-1.0625,-1.8125,263.188,0.66394,-0.00604248,0.0177612,0.747559
0.375,1.125,1.5,-0.36,0.17,9.63,-1.0625,-1.875,263.188,0.663879,-0.00610352,0.0178833,0.74762
0.1875,1.25,1.8125,-0.5,0.18,9.63,-1.0625,-1.875,263.188,0.663757,-0.00616455,0.0179443,0.747742
0.0625,0.875,1.875,-0.54,0.15,9.6,-1.0625,-1.875,263.125,0.663635,-0.00628662,0.0180054,0.747803
-0.0625,0.4375,1.5,-0.51,0.13,9.55,-1.0625,-1.875,263.125,0.663513,-0.00628662,0.0180664,0.747925
0.125,-0.4375,0.8125,-0.48,0.11,9.57,-1.0625,-1.875,263.125,0.663452,-0.00634766,0.0180664,0.747986
0.1875,-1.125,0.5,-0.41,0.11,9.61,-1.0625,-1.875,263.125,0.663452,-0.00628662,0.0180054,0.747925
0.1875,-1.875,0.9375,-0.39,0.14,9.59,-1.0625,-1.875,263.125,0.663391,-0.00622559,0.0178833,0.747986
0.4375,-1.8125,0.8125,-0.39,0.15,9.64,-1.0625,-1.875,263.125,0.663391,-0.00610352,0.0178223,0.748047
0.375,-1.625,0.75,-0.3,0.2,9.69,-1.0625,-1.8125,263.125,0.66333,-0.00604248,0.0177002,0.748108
0.25,-0.875,0.75,-0.26,0.19,9.66,-1.0625,-1.8125,263.062,0.663269,-0.00598145,0.0177002,0.748169
-0.375,0.25,0.9375,-0.27,0.16,9.66,-1.0625,-1.8125,263.062,0.663208,-0.00598145,0.0177002,0.748169
-0.5,1.1875,1.3125,-0.3,0.12,9.62,-1.0625,-1.8125,263.062,0.663147,-0.00604248,0.0177612,0.748291
-0.4375,1.8125,1.625,-0.41,0.12,9.57,-1.0625,-1.875,263.062,0.663025,-0.00616455,0.0178223,0.748352
-0.3125,2.125,1.8125,-0.43,0.16,9.61,-1.0625,-1.875,263.062,0.662903,-0.00628662,0.0179443,0.748474
0.0625,2.4375,1.5625,-0.46,0.16,9.62,-1.0625,-1.875,263,0.662781,-0.00646973,0.0181274,0.748535
-0.0625,2.25,1.25,-0.48,0.18,9.58,-1.0625,-1.9375,263,0.66272,-0.00665283,0.0182495,0.748596
-0.0625,1.625,0.9375,-0.52,0.13,9.57,-1.0625,-1.9375,263,0.662659,-0.0067749,0.0183716,0.748657
0.125,1.0625,0.5,-0.53,0.16,9.58,-1.0625,-1.9375,263,0.662659,-0.00689697,0.0184937,0.748657
0.375,0.5,0.0625,-0.5,0.18,9.58,-1.0625,-1.9375,263,0.662659,-0.00689697,0.0184937,0.748657
0.3125,-0.25,-0.375,-0.42,0.19,9.67,-1.0625,-2,263,0.662659,-0.00695801,0.0184937,0.748657
0.3125,-0.25,-0.8125,-0.31,0.14,9.66,-1,-2,263,0.66272,-0.00695801,0.0184937,0.748596
0.0625,0,-0.875,-0.25,0.13,9.64,-1,-2,263,0.662781,-0.00695801,0.0184937,0.748596
-0.0625,1.0625,-0.625,-0.3,0.14,9.63,-1,-2,263,0.662781,-0.00701904,0.0185547,0.748535
-0.3125,1.8125,0.1875,-0.47,0.12,9.6,-1,-2,263,0.662781,-0.00714111,0.0186768,0.748535
-0.1875,2.25,0.375,-0.49,0.13,9.58,-1,-2,263,0.662781,-0.00732422,0.0187988,0.748535
-0.0625,2.1875,0.3125,-0.48,0.12,9.57,-1,-2.0625,263,0.662781,-0.00744629,0.0189209,0.748535
0.1875,1.625,0.0625,-0.5,0.14,9.59,-1,-2.0625,263,0.662781,-0.00756836,0.019043,0.748535
0.0625,0.75,0.0625,-0.47,0.15,9.59,-1,-2.0625,263,0.662781,-0.00769043,0.019104,0.748535
0.0625,0,-0.1875,-0.44,0.13,9.58,-1,-2.0625,263,0.662781,-0.00769043,0.019104,0.748535
0.0625,-0.5625,-0.0625,-0.43,0.15,9.61,-1,-2.0625,263,0.662781,-0.00769043,0.019104,0.748535
0,-1.4375,0.0625,-0.42,0.18,9.64,-1,-2.0625,263,0.662781,-0.00762939,0.019043,0.748535
-0.125,-1.375,0.0625,-0.41,0.18,9.65,-1,-2.0625,263,0.662781,-0.00756836,0.0189819,0.748535
-0.5,-1.375,0.125,-0.39,0.12,9.59,-1,-2.0625,263,0.662781,-0.00744629,0.0189209,0.748535
-0.4375,-1.5,0.0625,-0.39,0.1,9.56,-1,-2,263,0.662781,-0.00738525,0.0187988,0.748535
-0.375,-1.375,0.375,-0.38,0.12,9.59,-1,-2,263,0.662781,-0.00732422,0.0187378,0.748535
-0.125,-1.625,0.5625,-0.41,0.17,9.66,-1,-2,263,0.662781,-0.00720215,0.0186157,0.748535
-0.25,-1.5,0.6875,-0.4,0.18,9.67,-1,-2,263,0.662781,-0.00714111,0.0185547,0.748596
-0.4375,-1.0625,0.5625,-0.41,0.13,9.6,-1,-2,263,0.662781,-0.00708008,0.0184937,0.748596
-0.5,-0.75,0.3125,-0.4,0.12,9.56,-1,-2,263,0.662781,-0.00701904,0.0184937,0.748596
-0.25,-0.625,0.0625,-0.35,0.12,9.59,-1,-1.9375,263,0.662781,-0.00695801,0.0184326,0.748596
0.125,-0.4375,0.125,-0.35,0.16,9.64,-1,-2,263,0.662781,-0.00701904,0.0184326,0.748596
0.125,-0.25,0.375,-0.42,0.16,9.64,-1,-2,263,0.662781,-0.00701904,0.0184326,0.748596
-0.0625,-0.5,0.6875,-0.49,0.16,9.59,-1,-2,263,0.66272,-0.00701904,0.0184326,0.748596
-0.3125,-1.125,0.8125,-0.43,0.12,9.6,-1,-1.9375,263,0.662659,-0.00695801,0.0183716,0.748657
-0.375,-1.625,0.3125,-0.36,0.13,9.61,-1,-1.9375,263,0.662659,-0.00683594,0.0183105,0.748657
-0.25,-1.6875,0.125,-0.31,0.14,9.6,-1,-1.9375,263,0.662659,-0.0067749,0.0181885,0.748657
-0.3125,-1.75,0.9375,-0.35,0.13,9.64,-1,-1.9375,263,0.662598,-0.00665283,0.0181274,0.748718
-0.3125,-1.75,0.9375,-0.37,0.13,9.64,-1,-1.875,263,0.662537,-0.00653076,0.0180054,0.748779
-0.5,-1.1875,1.1875,-0.37,0.13,9.6,-1,-1.875,262.938,0.662476,-0.00646973,0.0179443,0.74884
-0.5625,-1.125,1.3125,-0.37,0.1,9.6,-1,-1.875,262.938,0.662415,-0.00640869,0.0178833,0.748901
-0.1875,-1.625,1.5,-0.43,0.12,9.57,-1,-1.875,262.938,0.662292,-0.00634766,0.0178223,0.748962
0.0625,-2.25,1.375,-0.45,0.12,9.59,-1,-1.8125,262.938,0.662231,-0.00622559,0.0177002,0.749084
0.0625,-2.25,1.375,-0.47,0.15,9.61,-1,-1.8125,262.938,0.66217,-0.00610352,0.0175781,0.749146
-0.0625,-2.6875,1.125,-0.41,0.17,9.63,-1,-1.8125,262.875,0.662048,-0.00592041,0.0174561,0.749207
0,-3,0.5,-0.29,0.12,9.6,-1,-1.75,262.875,0.662109,-0.0057373,0.0172729,0.749207
0.1875,-2.0625,0.4375,-0.27,0.09,9.61,-1,-1.75,262.875,0.662109,-0.00561523,0.0171509,0.749207
0.5,-0.9375,0.375,-0.27,0.1,9.62,-1,-1.75,262.875,0.662109,-0.0055542,0.0170898,0.749207
0.625,0.25,0.3125,-0.34,0.17,9.63,-1,-1.75,262.875,0.662109,-0.0055542,0.0171509,0.749207
0.6875,1.375,0.125,-0.32,0.18,9.64,-1,-1.75,262.875,0.662109,-0.00561523,0.0172729,0.749207
0.5625,2.1875,-0.125,-0.31,0.16,9.65,-1,-1.75,262.875,0.662109,-0.0057373,0.017395,0.749207
0.5,3.0625,-0.1875,-0.3,0.15,9.64,-1,-1.8125,262.875,0.662048,-0.00592041,0.0175171,0.749207
0.0625,2.8125,0.1875,-0.47,0.19,9.64,-1,-1.8125,262.875,0.662048,-0.00610352,0.0177002,0.749207
-0.3125,2.3125,-0.125,-0.49,0.14,9.62,-1,-1.875,262.875,0.662048,-0.00628662,0.0178223,0.749207
-0.25,2.1875,-1,-0.43,0.12,9.51,-1,-1.875,262.938,0.662109,-0.00646973,0.0180054,0.749146
0.375,3.125,-1.625,-0.32,0.11,9.56,-1,-1.9375,262.938,0.662231,-0.00665283,0.0181885,0.749023
0.875,4.25,-1.5,-0.22,0.1,9.63,-1,-1.9375,262.938,0.662292,-0.00689697,0.0184326,0.748962
1.25,5.6875,-1.125,-0.27,0.1,9.58,-1.0625,-2,262.938,0.662354,-0.00720215,0.0188599,0.748901
1.625,7.0625,-1.0625,-0.35,0.16,9.68,-1.0625,-2.0625,262.938,0.662415,-0.00756836,0.0193481,0.74884
1.625,7.9375,-1.5,-0.41,0.16,9.64,-1.0625,-2.1875,263,0.662537,-0.00793457,0.0198975,0.748718
1.4375,8.5,-1.9375,-0.44,0.16,9.67,-1.0625,-2.25,263,0.662659,-0.00842285,0.0204468,0.748596
1.0625,9.25,-2.25,-0.44,0.19,9.68,-1.0625,-2.3125,263,0.662781,-0.00897217,0.0209961,0.748474
1.3125,10.3125,-2.625,-0.45,0.14,9.59,-1.125,-2.4375,263.062,0.662903,-0.00952148,0.0216675,0.748352
2,11.3125,-3.25,-0.41,0.09,9.57,-1.125,-2.5625,263.062,0.663086,-0.0101318,0.0224609,0.748108
2.6875,12.5625,-3.5625,-0.36,0.15,9.65,-1.125,-2.6875,263.125,0.66333,-0.0108032,0.0233154,0.747925
2.8125,14.1875,-3.4375,-0.37,0.22,9.72,-1.1875,-2.8125,263.125,0.663513,-0.0115356,0.024292,0.747681
2.1875,16.25,-3.5625,-0.42,0.25,9.77,-1.1875,-2.9375,263.188,0.663696,-0.0124512,0.0253296,0.747498
1.75,18.6875,-4.1875,-0.38,0.14,9.72,-1.1875,-3.125,263.188,0.66394,-0.0134888,0.0264282,0.747192
1.8125,22.0625,-4.5,-0.33,0.14,9.71,-1.25,-3.375,263.25,0.664185,-0.0147705,0.02771,0.746948
2.3125,25.375,-4.75,-0.45,0.18,9.72,-1.25,-3.5625,263.312,0.664429,-0.0162354,0.0292358,0.746643
2.3125,28.625,-5.4375,-0.61,0.24,9.72,-1.25,-3.875,263.375,0.664673,-0.0178833,0.0309448,0.746277
2.5625,31.25,-7.125,-0.99,0.28,9.76,-1.25,-4.1875,263.438,0.665039,-0.0197144,0.0328979,0.745789
2.3125,32.875,-9.1875,-1.11,0.32,9.59,-1.3125,-4.5,263.5,0.665527,-0.0217285,0.0348511,0.745239
2.75,32.75,-11.4375,-1.19,0.34,9.54,-1.3125,-4.8125,263.625,0.666199,-0.0236206,0.0368652,0.744507
2.4375,31.5,-13,-1.15,0.25,9.68,-1.3125,-5.125,263.75,0.66687,-0.0255127,0.0387573,0.743713
2.375,29.625,-13.1875,-1.11,0.18,9.46,-1.3125,-5.375,263.875,0.667603,-0.0272827,0.0405273,0.742859
2.625,27.4375,-13.5625,-1.09,0.14,9.46,-1.375,-5.6875,264,0.668396,-0.0289307,0.0422363,0.742065
3.75,27.5625,-14,-0.89,0.08,9.49,-1.375,-5.9375,264.125,0.669189,-0.0305176,0.0440063,0.74115
5.25,30.25,-13.625,-0.45,-0.02,9.59,-1.4375,-6.25,264.25,0.669922,-0.0321045,0.0460205,0.740295
6.625,34.375,-11.6875,-0.18,-0.04,9.71,-1.4375,-6.5625,264.375,0.670532,-0.0339355,0.0483398,0.739502
7.125,39.0625,-6.8125,0.02,-0.1,9.86,-1.5,-6.9375,264.438,0.670837,-0.0360107,0.0509644,0.738953
6.625,44.25,-0.625,-0.02,-0.11,9.9,-1.625,-7.375,264.438,0.670715,-0.0383911,0.053894,0.73877
6.75,50.625,4.3125,-0.74,0.05,9.7,-1.6875,-7.875,264.375,0.670227,-0.0411377,0.0571899,0.738831
7.5625,57.3125,6.3125,-1.12,0.22,9.76,-1.75,-8.4375,264.312,0.669556,-0.0442505,0.0609741,0.738953
7.625,62.375,6,-1.34,0.35,9.75,-1.8125,-9,264.25,0.668884,-0.0477295,0.0650024,0.739014
6.75,66.125,5.75,-1.41,0.35,9.71,-1.9375,-9.6875,264.188,0.668152,-0.0514526,0.0691528,0.739014
6.3125,67.875,6.6875,-1.58,0.05,9.24,-2,-10.3125,264.125,0.667358,-0.0552368,0.0734253,0.739014
7.6875,68.25,7.9375,-1.8,0.02,9.05,-2.0625,-11,264.062,0.666504,-0.059021,0.0777588,0.739075
10.4375,68.625,8.1875,-2.06,0.16,9.09,-2.1875,-11.625,264,0.665527,-0.0626831,0.0823364,0.739136
12.625,69.25,7.5,-2.15,0.23,9.24,-2.375,-12.3125,263.875,0.664673,-0.0662231,0.0870972,0.739075
12.75,69.75,6.1875,-2.26,0.75,9.65,-2.5,-13,263.812,0.663818,-0.0698242,0.0917969,0.738953
11.125,71.6875,4.0625,-2.32,0.81,9.79,-2.625,-13.6875,263.812,0.663025,-0.0736694,0.0965576,0.738647
8.4375,74.6875,1.8125,-2.29,0.75,9.77,-2.6875,-14.375,263.75,0.662354,-0.0778198,0.101257,0.73822
6.375,78.5625,0.4375,-2.29,0.45,9.46,-2.8125,-15.125,263.75,0.661743,-0.0823364,0.106079,0.73761
5.125,81.125,0.4375,-2.34,0.38,9.34,-2.875,-15.9375,263.75,0.661011,-0.0871582,0.110962,0.737
4.125,82.75,1.5,-2.46,0.37,9.33,-2.9375,-16.75,263.75,0.660156,-0.092041,0.115845,0.736389
2.8125,82.875,3.375,-2.59,0.42,9.33,-2.9375,-17.5625,263.688,0.659119,-0.0969849,0.120667,0.735901
0.375,81.5,5.625,-3,0.39,9.32,-3,-18.3125,263.625,0.657959,-0.10199,0.125244,0.735535
-2.1875,81.25,7.5625,-3.18,0.43,9.17,-3,-19.125,263.5,0.656555,-0.107117,0.1297,0.735291
-4,80.4375,8.3125,-3.34,0.48,8.95,-3,-19.875,263.375,0.655151,-0.112244,0.133972,0.735046
-4.4375,80.0625,7.8125,-3.49,0.49,8.83,-3,-20.625,263.312,0.653687,-0.117371,0.138184,0.734741
-4.75,79.4375,6.3125,-3.83,0.62,9.04,-3,-21.4375,263.188,0.652283,-0.122498,0.142334,0.734314
-5.4375,81,3.125,-3.91,0.66,9.13,-3,-22.1875,263.125,0.651062,-0.127747,0.146484,0.733704
-6.125,84.6875,-0.8125,-3.85,0.67,9.18,-2.9375,-23,263.125,0.649963,-0.133362,0.150757,0.732849
-7.5,88.625,-4.1875,-3.8,0.66,9.17,-2.875,-23.875,263.125,0.648987,-0.139282,0.15509,0.731689
-9.5625,92.125,-5.6875,-3.68,0.5,9.11,-2.75,-24.75,263.125,0.64801,-0.145569,0.159485,0.730347
-12.375,93.5,-4.3125,-3.71,0.31,8.75,-2.625,-25.6875,263.125,0.646851,-0.1521,0.163757,0.729126
-11.1875,87.9375,1.625,-3.51,-0.36,6.96,-2.5625,-26.5,263.062,0.645386,-0.158081,0.167908,0.72821
0.625,74.625,13,-5.06,-1.17,5.6,-2.625,-27.25,262.938,0.643494,-0.162476,0.17218,0.727905
14.625,63.8125,16.75,-5.77,-1.01,6.14,-2.875,-27.875,262.812,0.641724,-0.165344,0.176758,0.727722
28.375,55.25,12.625,-5.61,-0.58,6.42,-3.25,-28.375,262.688,0.640503,-0.167053,0.181702,0.727173
41.875,51,8.4375,-5.27,-0.01,6.52,-3.6875,-28.875,262.75,0.639771,-0.167786,0.187134,0.726257
51.375,47.3125,6.5625,-5.39,0.63,8.02,-4.25,-29.3125,262.75,0.639343,-0.167786,0.192932,0.725159
53.4375,43.875,4.6875,-5.31,0.92,8.65,-4.8125,-29.75,262.875,0.639099,-0.16748,0.198669,0.723877
48.8125,39.625,2.6875,-5.63,1.47,10.43,-5.3125,-30.125,262.938,0.638977,-0.167236,0.203857,0.722656
31,35,0.625,-5.12,2.29,12.02,-5.6875,-30.4375,263,0.638733,-0.167664,0.207642,0.721619
12.0625,34.3125,3.6875,-4.91,0.95,8.17,-5.8125,-30.75,263,0.638062,-0.169067,0.210266,0.72113
7.1875,34.5,5.1875,-5.55,0.28,7.3,-5.9375,-31.125,262.938,0.637268,-0.170654,0.212646,0.720825
12.8125,34.4375,2.5625,-5.35,0.27,7.16,-6.125,-31.4375,262.938,0.636658,-0.172058,0.215332,0.720215
19.0625,34.6875,1.4375,-5.09,0.47,7.67,-6.3125,-31.75,262.938,0.63623,-0.173096,0.218384,0.719421
18.6875,32.625,2.5625,-5.87,1.42,9.19,-6.5625,-32.0625,262.938,0.635742,-0.174011,0.221313,0.71875
9.875,23.1875,2,-5.9,1.76,8.7,-6.6875,-32.3125,262.938,0.635315,-0.174866,0.223145,0.718323
0.5625,12.6875,-0.0625,-6.24,0.88,6.9,-6.6875,-32.4375,262.938,0.635071,-0.175659,0.223877,0.71814
3.0625,4.6875,-2.375,-5.07,0.73,8.13,-6.6875,-32.5,263,0.635193,-0.175842,0.224243,0.717896
5.1875,2.5,-2.125,-4.69,0.9,8.83,-6.75,-32.5,263,0.635315,-0.17572,0.22467,0.717651
3.0625,5.3125,-0.25,-4.71,0.74,8.5,-6.75,-32.5625,263,0.635254,-0.175903,0.225159,0.717468
3.1875,9.75,1.1875,-4.81,0.57,7.93,-6.8125,-32.625,263,0.635071,-0.17627,0.225891,0.717346
5.5625,12.75,2.1875,-5.36,0.94,8.17,-6.875,-32.75,263,0.634766,-0.176697,0.226929,0.717163
5.4375,12.375,2.5625,-5.47,1,8.29,-6.9375,-32.875,263,0.63446,-0.177124,0.227966,0.717041
2.875,10,1.9375,-5.51,1.02,7.71,-7,-33,262.938,0.634216,-0.177551,0.22876,0.716919
3.0625,7.875,0.5625,-5.66,0.93,7.6,-7.0625,-33.0625,262.938,0.634094,-0.177856,0.22937,0.716736
4.3125,6.625,-0.9375,-5.33,0.89,7.95,-7.0625,-33.125,263,0.634094,-0.17804,0.229919,0.716492
4.5,5.9375,-1.5625,-5.18,0.82,8.01,-7.125,-33.1875,263,0.634094,-0.178162,0.23053,0.716248
4.8125,6.1875,-1.4375,-5.19,0.83,8.03,-7.1875,-33.25,263.062,0.634155,-0.178345,0.23114,0.715942
4.875,6.9375,-1.1875,-5.29,0.88,7.99,-7.1875,-33.3125,263.062,0.634155,-0.178528,0.23175,0.715698
4.8125,7.375,-1.5625,-5.3,0.89,7.96,-7.25,-33.375,263.062,0.634216,-0.178772,0.232422,0.715393
4.875,7.375,-1.625,-5.28,0.93,8.04,-7.3125,-33.4375,263.125,0.634216,-0.178955,0.233032,0.715088
4.1875,6.75,-1.4375,-5.28,0.93,8.07,-7.3125,-33.5,263.125,0.634277,-0.179199,0.233643,0.714844
