Gyro_x,Gyro_y,Gyro_z,Acc_x,Acc_y,Acc_z,Euler_x,Euler_y,Euler_z,Quat_0,Quat_1,Quat_2,Quat_3
-0.625,-0.3125,-0.3125,-0.48,0.09,9.4,-0.75,-3.4375,4.25,-0.99884,-0.00787354,-0.0298462,0.0371704
0.375,0,0.3125,-0.51,0.13,9.5,-0.75,-3.4375,4.25,-0.99884,-0.00787354,-0.0298462,0.0371704
0.625,-0.0625,0.5625,-0.62,0.22,9.56,-0.75,-3.4375,4.25,-0.99884,-0.00793457,-0.0298462,0.0371704
0.3125,-0.5,0.0625,-0.65,0.27,9.58,-0.75,-3.4375,4.25,-0.99884,-0.00793457,-0.0298462,0.0371704
-0.3125,-1.0625,-0.25,-0.55,0.22,9.55,-0.75,-3.4375,4.25,-0.99884,-0.00793457,-0.0297241,0.0371704
-0.375,-0.875,-0.1875,-0.49,0.15,9.5,-0.75,-3.375,4.25,-0.99884,-0.00793457,-0.0296631,0.0371704
-0.1875,-0.4375,0.125,-0.49,0.14,9.51,-0.75,-3.375,4.25,-0.99884,-0.00793457,-0.0296631,0.0371704
0.375,0,0.4375,-0.59,0.2,9.56,-0.75,-3.375,4.25,-0.99884,-0.00793457,-0.0296631,0.0371704
0.5,0.375,0.125,-0.61,0.24,9.6,-0.75,-3.375,4.25,-0.99884,-0.00793457,-0.0296631,0.0371704
-0.125,0.5625,-0.3125,-0.58,0.24,9.61,-0.75,-3.375,4.25,-0.99884,-0.00793457,-0.0296631,0.0371704
-0.5,0.6875,-0.0625,-0.56,0.15,9.55,-0.75,-3.375,4.25,-0.99884,-0.00793457,-0.0297241,0.0371704
-0.375,0.6875,0,-0.59,0.12,9.51,-0.75,-3.4375,4.25,-0.99884,-0.00793457,-0.0297852,0.0371704
-0.125,0.875,0.125,-0.63,0.12,9.53,-0.75,-3.4375,4.25,-0.99884,-0.00793457,-0.0298462,0.0371704
0.25,0.75,-0.125,-0.61,0.17,9.5,-0.75,-3.4375,4.25,-0.99884,-0.00793457,-0.0299072,0.0371704
0.4375,-0.1875,0.0625,-0.61,0.25,9.56,-0.75,-3.4375,4.25,-0.99884,-0.00793457,-0.0299072,0.0371704
0.1875,-1.25,0.125,-0.58,0.26,9.6,-0.75,-3.4375,4.25,-0.99884,-0.00793457,-0.0297852,0.0371704
-0.25,-2,0.1875,-0.58,0.19,9.5,-0.75,-3.375,4.25,-0.99884,-0.00793457,-0.0296021,0.0371704
0,-1.9375,0,-0.54,0.15,9.58,-0.75,-3.375,4.25,-0.99884,-0.00787354,-0.02948,0.0371704
0.3125,-1.0625,-0.1875,-0.45,0.18,9.6,-0.75,-3.375,4.25,-0.99884,-0.00787354,-0.0293579,0.0371704
0.4375,0.125,0,-0.48,0.24,9.58,-0.75,-3.375,4.25,-0.99884,-0.00787354,-0.0293579,0.0371704
0.125,1.25,0.125,-0.55,0.26,9.63,-0.75,-3.375,4.25,-0.99884,-0.00787354,-0.02948,0.0371704
-0.5625,1.5,0,-0.62,0.27,9.61,-0.75,-3.375,4.25,-0.99884,-0.00787354,-0.0296021,0.0371704
-0.8125,1.5625,-0.1875,-0.59,0.11,9.5,-0.75,-3.4375,4.25,-0.99884,-0.0078125,-0.0297241,0.0371704
-0.4375,1.5625,-0.375,-0.57,0.11,9.45,-0.75,-3.4375,4.25,-0.99884,-0.00787354,-0.0299072,0.0371704
0,0.75,0,-0.6,0.16,9.46,-0.75,-3.4375,4.25,-0.99884,-0.00787354,-0.0299683,0.0371704
0.375,-0.1875,0.25,-0.67,0.24,9.56,-0.75,-3.4375,4.25,-0.99884,-0.00787354,-0.0299683,0.0371704
0.25,-1.125,0.125,-0.63,0.21,9.57,-0.75,-3.4375,4.25,-0.99884,-0.00787354,-0.0298462,0.0371704
0.0625,-2,0,-0.58,0.22,9.55,-0.75,-3.375,4.25,-0.99884,-0.0078125,-0.0296631,0.0371704
-0.0625,-1.75,-0.125,-0.52,0.18,9.55,-0.75,-3.375,4.25,-0.99884,-0.0078125,-0.029541,0.0371704
0.125,-0.8125,0.125,-0.52,0.2,9.55,-0.75,-3.375,4.25,-0.99884,-0.0078125,-0.02948,0.0371704
0.125,0.0625,0.1875,-0.56,0.24,9.6,-0.75,-3.375,4.25,-0.99884,-0.0078125,-0.02948,0.0371704
0.0625,0.4375,0.0625,-0.58,0.22,9.58,-0.75,-3.375,4.25,-0.99884,-0.0078125,-0.02948,0.0371704
-0.0625,0.6875,-0.0625,-0.56,0.22,9.55,-0.75,-3.375,4.25,-0.99884,-0.0078125,-0.029541,0.0371704
-0.3125,0.75,-0.125,-0.55,0.17,9.53,-0.75,-3.375,4.25,-0.99884,-0.0078125,-0.0296021,0.0371704
-0.125,0.6875,0,-0.56,0.17,9.53,-0.75,-3.375,4.25,-0.99884,-0.0078125,-0.0296631,0.0371704
-0.0625,0.25,0,-0.59,0.18,9.53,-0.75,-3.375,4.25,-0.99884,-0.0078125,-0.0296631,0.0371704
0.1875,0,0,-0.61,0.18,9.53,-0.75,-3.375,4.25,-0.99884,-0.0078125,-0.0296631,0.0371704
0,-0.25,-0.125,-0.57,0.2,9.53,-0.75,-3.375,4.25,-0.99884,-0.0078125,-0.0296631,0.0371704
-0.125,-0.3125,0.0625,-0.58,0.17,9.54,-0.75,-3.375,4.25,-0.99884,-0.0078125,-0.0296631,0.0371704
0,-0.375,0.0625,-0.58,0.2,9.52,-0.75,-3.375,4.25,-0.99884,-0.0078125,-0.0296631,0.0371704
0.0625,-0.375,0,-0.59,0.18,9.52,-0.75,-3.375,4.25,-0.99884,-0.0078125,-0.0296631,0.0371704
0.1875,-0.375,0.0625,-0.56,0.19,9.56,-0.75,-3.375,4.25,-0.99884,-0.0078125,-0.0296631,0.0371704
0.125,-0.375,0,-0.54,0.18,9.58,-0.75,-3.375,4.25,-0.99884,-0.0078125,-0.0296631,0.0371704
-0.0625,-1.4375,0,-0.56,0.18,9.4,-0.75,-3.375,4.25,-0.99884,-0.0078125,-0.029541,0.0371704
0,-1.125,0.1875,0.17,-0.03,9.16,-0.75,-3.375,4.25,-0.99884,-0.0078125,-0.0294189,0.0371704
1.875,1.9375,2.375,0.23,-0.15,9.8,-0.75,-3.375,4.1875,-0.99884,-0.00799561,-0.0296021,0.0369873
1.375,8,3.6875,-0.29,0.3,10.07,-0.75,-3.4375,4.1875,-0.99884,-0.00817871,-0.0302734,0.0366821
2.8125,16.6875,2.5,-0.6,0.79,9.39,-0.8125,-3.625,4.125,-0.998779,-0.00842285,-0.0316772,0.036438
-1.5,15.5,-0.1875,-0.76,0.44,9.59,-0.8125,-3.75,4.125,-0.998779,-0.00836182,-0.032959,0.036438
-5.5,12.5,-1.25,-0.58,-0.06,9.2,-0.75,-3.875,4.1875,-0.998718,-0.00793457,-0.0340576,0.0365601
-3.9375,11.3125,-0.5625,-0.79,-0.25,9.25,-0.6875,-4,4.1875,-0.998718,-0.00762939,-0.0350342,0.036499
-0.4375,7.6875,0.625,-0.9,-0.17,8.78,-0.6875,-4.0625,4.125,-0.998657,-0.00769043,-0.0356445,0.036438
2.0625,-0.4375,1.4375,-1.71,0.35,9.26,-0.75,-4.0625,4.125,-0.998657,-0.0078125,-0.0356445,0.0363159
2.1875,-10.8125,0.125,-1.59,0.41,9.24,-0.75,-4,4.125,-0.998718,-0.00799561,-0.034729,0.036377
1.625,-21.5625,-1.125,-1.36,0.24,9.46,-0.75,-3.75,4.125,-0.998779,-0.00805664,-0.0328979,0.036499
1.25,-29.125,-1.5625,-0.55,0.06,9.52,-0.75,-3.5,4.1875,-0.99884,-0.00805664,-0.0304565,0.0366211
2.3125,-31.375,-1.125,-0.14,0.06,9.63,-0.8125,-3.1875,4.1875,-0.998901,-0.00817871,-0.027771,0.0367432
2.625,-28.4375,-0.4375,0.04,0.21,9.84,-0.8125,-2.9375,4.1875,-0.998962,-0.00830078,-0.0253906,0.0368042
2.375,-21.1875,-0.4375,0.19,0.36,9.83,-0.8125,-2.6875,4.1875,-0.999023,-0.00842285,-0.0235596,0.0368042
1.625,-12.4375,-0.3125,0.22,0.41,9.93,-0.875,-2.5625,4.1875,-0.999023,-0.00854492,-0.022522,0.0368042
-0.3125,-4.625,1.375,-0.34,0.31,9.61,-0.875,-2.5625,4.1875,-0.999023,-0.00854492,-0.0221558,0.0366821
-2.0625,-8.125,2.6875,-2.32,0.09,8.7,-0.8125,-2.4375,4.125,-0.999084,-0.00836182,-0.0214233,0.036438
0.0625,-28.4375,-2,-3.87,-0.07,8.41,-0.8125,-2.1875,4.1875,-0.999084,-0.00823975,-0.019043,0.0366821
3.0625,-58.4375,-7.1875,0.47,0.04,9.77,-0.875,-1.625,4.25,-0.999146,-0.00830078,-0.0140991,0.0372925
4.375,-64.9375,-4.3125,1.83,0.01,9.67,-0.875,-1,4.3125,-0.999207,-0.00848389,-0.00860596,0.0377197
7.4375,-50.4375,2.6875,1.93,0.17,9.61,-1,-0.5,4.25,-0.999268,-0.00897217,-0.0043335,0.0375366
7.6875,-41.25,8.625,1.35,0.54,9.94,-1.0625,-0.125,4.1875,-0.999268,-0.00946045,-0.000793457,0.0368652
3.1875,-37.125,7.125,1.64,1.02,10.69,-1.0625,0.1875,4.125,-0.999268,-0.00964355,0.00231934,0.0362549
-0.4375,-11.4375,2.25,1.86,1.45,10.04,-1.0625,0.3125,4.125,-0.999268,-0.00958252,0.0032959,0.0360718
-2.75,17.1875,0.625,1.77,1.86,10,-1.0625,0.125,4.125,-0.999329,-0.00939941,0.00183105,0.0360107
-6.375,30.5625,-0.1875,0.56,3.67,10.23,-1,-0.0625,4.125,-0.999329,-0.00897217,-0.000732422,0.0360107
-7,40.6875,-1.375,1.15,4.67,9.39,-0.9375,-0.5,4.125,-0.999329,-0.00848389,-0.00421143,0.0360718
-8.0625,12.25,-12.0625,2.44,5.69,8.62,-0.875,-0.625,4.25,-0.999268,-0.0078125,-0.00531006,0.0371094
-3.125,-29.375,-21.1875,2.8,6.14,9.53,-0.8125,-0.3125,4.4375,-0.999207,-0.00744629,-0.00280762,0.0388794
4.75,-45.875,-36.125,1.59,5.36,8.99,-0.875,0.0625,4.8125,-0.999084,-0.00769043,0.0010376,0.0419922
11.5625,-48.625,-56.1875,1.4,4.41,9.36,-1,0.5,5.3125,-0.99884,-0.00854492,0.00512695,0.0467529
14.4375,-54.5625,-72.625,1.64,3.63,10.18,-1.125,1,6.0625,-0.998535,-0.00958252,0.00976562,0.0529175
12.5625,-63.1875,-80.1875,2.08,2.97,11.27,-1.25,1.625,6.8125,-0.998047,-0.010437,0.0150757,0.0596924
5.125,-65.1875,-79.6875,2.57,2.13,13.08,-1.3125,2.25,7.625,-0.997498,-0.0106201,0.0205078,0.0664673
-8.25,-57.125,-72.9375,2.87,1.96,13.86,-1.3125,2.75,8.3125,-0.997009,-0.00970459,0.0252075,0.0726929
-27.8125,-44.5625,-59.875,3.17,1.85,14.53,-1.0625,3.1875,8.875,-0.996521,-0.00720215,0.0287476,0.0778198
-52.8125,-31.375,-42.625,3.26,1.81,14.91,-0.5625,3.5,9.3125,-0.996155,-0.00268555,0.0310059,0.081543
-80.5625,-18.8125,-23.5,3.34,2.32,14.86,0.125,3.6875,9.5625,-0.995972,0.00415039,0.0320435,0.0837402
-107.938,-8.4375,-4,3.35,2.63,14.25,1.1875,3.75,9.6875,-0.99585,0.0133057,0.0319824,0.0844116
-129.875,1,14.3125,3.13,2.93,13.4,2.4375,3.75,9.5625,-0.995728,0.024231,0.0310059,0.0835571
-143,11.3125,28.25,2.75,3.05,12.44,3.875,3.625,9.3125,-0.995605,0.0362549,0.0289307,0.081543
-147.688,23.125,37,2.01,3.24,10.61,5.3125,3.375,9,-0.995361,0.048645,0.0258789,0.0788574
-145.625,33,41.5625,1.6,3.2,9.65,6.75,3,8.6875,-0.995056,0.06073,0.0219727,0.0758057
-137.625,38.0625,44.375,1.38,3.2,8.82,8.0625,2.5625,8.3125,-0.994629,0.0721436,0.0176392,0.0725098
-124.938,40.875,46.25,1.06,3.18,7.62,9.3125,2.125,7.9375,-0.994141,0.0824585,0.0131836,0.0690308
-109.062,43.1875,47.75,0.99,3.1,7.22,10.375,1.625,7.5,-0.993652,0.0914307,0.00854492,0.0654907
-92.8125,44.625,49.6875,1.06,3.1,7.16,11.3125,1.125,7.0625,-0.993164,0.098999,0.00390625,0.0617065
-78.5625,45.1875,52.375,1.06,3.14,7.22,12.0625,0.5625,6.625,-0.992737,0.105347,-0.000732422,0.0576782
-68.9375,42.375,56,0.65,3.1,7.1,12.75,0.0625,6.125,-0.992371,0.110901,-0.00512695,0.0534058
-64.25,36.125,59.375,0.42,3.21,7.02,13.3125,-0.3125,5.5625,-0.992004,0.116089,-0.00897217,0.0487061
-63.6875,27.0625,61.8125,0.28,3.25,6.64,13.9375,-0.75,5,-0.991577,0.121277,-0.012146,0.0437622
-64.9375,18.9375,62.6875,0.04,3.13,6.11,14.5625,-1.0625,4.4375,-0.991089,0.126587,-0.0145874,0.0386353
-65.875,13.5,61,-0.7,3.02,5.51,15.1875,-1.375,3.875,-0.99054,0.131958,-0.0166016,0.0335693
-66.375,10.375,56.3125,-1.24,2.97,5.46,15.8125,-1.5625,3.3125,-0.989929,0.137451,-0.0183105,0.0288696
-67.375,6.0625,48.625,-1.74,2.94,5.31,16.4375,-1.75,2.8125,-0.989197,0.142944,-0.0195312,0.0247803
-68.3125,-0.3125,38.6875,-2.22,2.93,5.12,17.125,-1.875,2.4375,-0.988464,0.148621,-0.0201416,0.0214233
-67.5625,-5.9375,25.6875,-3.01,2.72,4.63,17.75,-1.875,2.1875,-0.987671,0.154236,-0.0200806,0.019104
-65.1875,-11.75,10.5625,-3.16,2.5,4.42,18.375,-1.8125,2.0625,-0.986816,0.159668,-0.0193481,0.0179443
-62.125,-18.875,-5.75,-3.28,2.22,4.2,19,-1.625,2.0625,-0.985962,0.164856,-0.0177612,0.0180664
-59.625,-30.625,-21.5625,-2.78,1.41,4.4,19.5625,-1.3125,2.25,-0.985168,0.169922,-0.0150146,0.0193481
-59.125,-43.375,-35.9375,-2.34,1.06,4.46,20.125,-0.75,2.5,-0.984253,0.174988,-0.0109863,0.0216675
-60.625,-53.75,-48.1875,-1.97,0.69,4.21,20.75,-0.125,2.875,-0.983337,0.180115,-0.00592041,0.0247803
-60.9375,-61.5,-58.75,-1.49,0.38,4.01,21.3125,0.5625,3.3125,-0.982239,0.185364,-6.10352e-05,0.0286865
-58.6875,-65.1875,-67.25,-0.56,0.23,4.11,21.875,1.375,3.875,-0.98114,0.190369,0.00628662,0.0332642
-53.125,-63.8125,-76.6875,-0.44,0.18,4.12,22.375,2.25,4.5,-0.97998,0.194885,0.0126343,0.0386353
-43.375,-55.6875,-88.625,-0.95,0.28,4.2,22.75,3.0625,5.25,-0.978882,0.198608,0.0186157,0.045105
-30.3125,-44.5,-106,-1.65,0.54,4.4,23,3.875,6.1875,-0.977844,0.201111,0.0239258,0.0531616
-15.625,-32.4375,-130.375,-2.52,1.02,5.06,23.125,4.6875,7.375,-0.976868,0.202271,0.0287476,0.0634155
-1.3125,-20.5625,-159.062,-2.15,1.16,5.28,23,5.4375,8.875,-0.97583,0.202087,0.0331421,0.0761719
12.6875,-8.5,-188.062,-1.2,1.25,5.72,22.6875,6.25,10.6875,-0.974731,0.2005,0.0371704,0.0914917
25.6875,6.8125,-212.438,0,1.25,6.35,22.25,6.9375,12.75,-0.973389,0.197632,0.0404053,0.109009
35.4375,21,-227.938,2.44,0.82,7.46,21.625,7.625,15,-0.971741,0.193726,0.0427856,0.12793
41.4375,31.25,-233.75,3.49,0.62,7.8,20.875,8.125,17.25,-0.969788,0.189087,0.0444946,0.147461
44.0625,38.9375,-231.25,4.34,0.64,7.97,20.125,8.5625,19.5625,-0.96759,0.184082,0.0455322,0.166809
44.3125,44.1875,-224.875,4.58,1.49,9.02,19.375,8.875,21.75,-0.965088,0.178955,0.0460205,0.185669
44.0625,49.25,-218.188,5.15,1.8,9.36,18.625,9.125,23.9375,-0.962341,0.173706,0.0459595,0.204041
44.4375,50.1875,-211.625,5.76,1.82,9.65,17.8125,9.3125,26,-0.959351,0.168396,0.0457764,0.221741
48.6875,48.5625,-204.188,6.09,1.66,9.98,17,9.4375,28,-0.956238,0.16272,0.0456543,0.23877
58.875,49.3125,-196.938,6.4,1.31,10.31,16.125,9.5625,29.9375,-0.953125,0.156128,0.0455322,0.255066
73.875,53.9375,-192.75,6.44,1.26,10.75,15.0625,9.5625,31.8125,-0.950012,0.148254,0.0452881,0.270996
90.1875,60.4375,-192.188,6.41,1.31,11.29,13.875,9.4375,33.6875,-0.946838,0.138916,0.0449219,0.286743
103.375,66.125,-194.625,6.43,1.43,11.89,12.5625,9.25,35.5625,-0.943359,0.128235,0.0444336,0.302673
112.125,66.9375,-199.062,6.45,1.65,13.29,11.125,9,37.4375,-0.939575,0.116821,0.0440674,0.318787
117.375,60.75,-204.312,6.25,1.47,13.96,9.6875,8.8125,39.375,-0.935242,0.105103,0.0444336,0.335083
119.938,50.3125,-209.75,5.79,1.25,14.41,8.1875,8.625,41.375,-0.930359,0.0933838,0.0457153,0.351562
120.688,39.8125,-217.5,5.42,1.24,14.94,6.6875,8.5,43.4375,-0.924805,0.0818481,0.0478516,0.368408
119,33.4375,-227.438,5.65,1.79,16.62,5.25,8.4375,45.5625,-0.918457,0.0706177,0.0505371,0.385864
114.188,34.625,-239.25,5.95,2.07,17.14,3.75,8.3125,47.8125,-0.911255,0.0595703,0.0529785,0.403992
108.188,41.75,-251.75,6.22,2.2,17.14,2.375,8,50.1875,-0.903137,0.048645,0.0546875,0.423035
104.125,48.6875,-264.188,6.97,1.98,16.43,1,7.625,52.6875,-0.894104,0.0377197,0.0557861,0.442749
105.25,50.375,-274.688,7.22,1.63,15.88,-0.3125,7.125,55.25,-0.884155,0.0266113,0.0567627,0.463013
113.25,44.8125,-282.125,7.28,1.26,15.61,-1.6875,6.6875,57.9375,-0.873291,0.0150757,0.0584717,0.483459
125.125,36.4375,-286.875,7.31,0.98,15.84,-3.25,6.1875,60.625,-0.861572,0.00292969,0.0612183,0.503906
134.688,29.375,-289.25,7.52,0.77,17.3,-4.8125,5.6875,63.3125,-0.849182,-0.00964355,0.0648804,0.524048
136.688,28.5625,-287.875,7.49,0.81,17.73,-6.4375,5.1875,66.0625,-0.836121,-0.0222778,0.0686035,0.543762
131.938,32.8125,-283.5,7.52,0.92,17.95,-7.9375,4.5,68.6875,-0.822754,-0.034729,0.0717773,0.562744
122,39.75,-275.688,7.8,1.15,18.17,-9.3125,3.75,71.3125,-0.809265,-0.0467529,0.0739746,0.580872
108.625,49.0625,-265.625,8.48,1.16,18.72,-10.5,2.8125,73.8125,-0.795898,-0.0582275,0.0748901,0.597961
92.875,57.375,-253.625,8.66,0.69,18.51,-11.5,1.8125,76.1875,-0.782776,-0.0689697,0.0744629,0.613953
77.5,61.1875,-240.438,8.37,0.06,17.65,-12.25,0.75,78.4375,-0.770081,-0.0787354,0.072998,0.628845
66.9375,60.375,-227.625,7.86,-0.36,16.54,-12.9375,-0.25,80.5625,-0.757751,-0.0877075,0.071106,0.6427
64.875,58.8125,-217.688,6.48,-0.51,15.19,-13.5625,-1.3125,82.625,-0.745605,-0.0963745,0.0692139,0.655701
68.375,58.125,-212,6.31,-0.53,15.24,-14.125,-2.3125,84.625,-0.733521,-0.105103,0.067627,0.66803
72.5,60.4375,-208.75,6.25,-0.49,15.46,-14.75,-3.375,86.5625,-0.721313,-0.114197,0.0661011,0.679932
72.5,66.3125,-205.062,6.31,-0.61,15.43,-15.3125,-4.5625,88.5,-0.709106,-0.123535,0.064209,0.691223
68.6875,72,-199.75,6.35,-0.8,15.18,-15.8125,-5.75,90.375,-0.69696,-0.132935,0.0618286,0.701965
63,75.625,-192.562,6.33,-1.13,14.97,-16.25,-6.9375,92.1875,-0.68512,-0.14209,0.05896,0.711975
56.5,76.3125,-183.812,6.21,-1.47,14.75,-16.625,-8.1875,93.875,-0.673645,-0.150818,0.0557251,0.721313
49.625,74.1875,-175,5.9,-2.05,13.96,-16.875,-9.3125,95.5,-0.662659,-0.158997,0.0522461,0.72998
42.875,70.625,-166.875,5.68,-2.32,13.46,-17.0625,-10.4375,97.0625,-0.651978,-0.166443,0.0487061,0.738098
36.8125,66.5625,-159.312,5.47,-2.49,12.99,-17.1875,-11.5625,98.5625,-0.641724,-0.173279,0.045105,0.745728
31.0625,62.875,-152.688,5.34,-2.58,12.59,-17.1875,-12.5625,99.9375,-0.631836,-0.179504,0.0413818,0.752869
25.4375,59.5625,-145.562,5.14,-2.74,12.06,-17.1875,-13.5,101.312,-0.622375,-0.18512,0.0376587,0.759583
20,57.1875,-138.375,5.04,-2.87,11.88,-17.0625,-14.4375,102.625,-0.613281,-0.190308,0.0337524,0.765869
15.4375,56.1875,-131.125,4.8,-3.06,11.43,-16.9375,-15.3125,103.812,-0.604675,-0.195068,0.0297241,0.771667
12.5625,55.6875,-124.812,4.48,-3.39,10.98,-16.8125,-16.1875,104.938,-0.596436,-0.199646,0.0256348,0.777039
11.8125,54.5,-118.188,4.16,-3.9,10.43,-16.625,-17.0625,106.062,-0.588562,-0.204102,0.0216675,0.781982
11.625,52.0625,-110.562,4.18,-4.05,10.52,-16.4375,-17.8125,107.062,-0.581116,-0.208313,0.0179443,0.786499
9.6875,48,-100.562,4.19,-4.18,10.84,-16.3125,-18.5625,108,-0.57428,-0.212097,0.0144653,0.790588
4.25,44.875,-89.0625,4.02,-4.71,11.18,-16.125,-19.1875,108.812,-0.568298,-0.215393,0.0109863,0.794067
-4.375,43.4375,-77.25,3.86,-4.94,11.23,-15.8125,-19.8125,109.438,-0.563232,-0.218201,0.00720215,0.796936
-14.375,43.1875,-65.25,3.7,-5.2,11.24,-15.5,-20.375,110,-0.559143,-0.220459,0.00299072,0.799255
-25,44.125,-52.75,3.52,-5.41,11.27,-15.125,-20.9375,110.438,-0.55603,-0.222229,-0.00177002,0.800903
-35.5625,45.8125,-40.5,2.99,-5.73,11.43,-14.6875,-21.5,110.688,-0.553955,-0.223633,-0.00708008,0.801941
-46.125,49.25,-28.625,2.77,-5.74,11.48,-14.1875,-22,110.812,-0.552795,-0.224792,-0.0130615,0.802307
-57.0625,54.125,-17.625,2.56,-5.76,11.54,-13.625,-22.5625,110.812,-0.552612,-0.225769,-0.0198364,0.802002
-68.6875,59.875,-7,2.57,-5.67,11.65,-13,-23.125,110.688,-0.553345,-0.226624,-0.0274048,0.801025
-80.5625,64.5,4.4375,2.74,-5.58,11.53,-12.25,-23.75,110.438,-0.555054,-0.227234,-0.0357666,0.799377
-92.875,65.375,16.875,2.49,-5.71,10.9,-11.5,-24.3125,110,-0.557739,-0.227356,-0.0447998,0.797058
-102.438,62.4375,29.125,2.04,-5.88,10.31,-10.6875,-24.875,109.438,-0.561401,-0.226807,-0.0540771,0.794006
-108.125,56.875,39.4375,1.74,-5.83,9.98,-9.875,-25.3125,108.812,-0.565796,-0.225647,-0.0632324,0.790527
-111.625,50.0625,47.1875,1.47,-5.42,10.27,-9.0625,-25.75,108.062,-0.570801,-0.223877,-0.0722046,0.786682
-116.062,43.4375,53.25,1.48,-5.18,10.43,-8.1875,-26.0625,107.25,-0.576233,-0.221497,-0.0809937,0.782532
-121.562,36.1875,58.5625,1.57,-5,10.57,-7.3125,-26.3125,106.375,-0.582092,-0.218384,-0.0897217,0.778076
-127.375,28.625,64.1875,1.67,-4.75,10.81,-6.4375,-26.5625,105.438,-0.588379,-0.214478,-0.0982666,0.773376
-133.688,20.5,70.5,1.81,-4.58,11.01,-5.4375,-26.6875,104.438,-0.595215,-0.209717,-0.10675,0.768372
-139.312,12.8125,77.4375,2,-4.31,11.32,-4.5,-26.75,103.375,-0.602539,-0.204224,-0.115051,0.762878
-139.312,6.0625,85.3125,2.15,-4.03,11.54,-3.5,-26.75,102.188,-0.610413,-0.19812,-0.123169,0.756958
-147,0.5,93.4375,2.74,-3.85,11.97,-2.5625,-26.6875,100.938,-0.618774,-0.191467,-0.130981,0.750549
-148.5,-3.9375,103.438,3.27,-3.74,12.22,-1.625,-26.625,99.625,-0.627686,-0.18457,-0.138489,0.743469
-149.688,-7.5625,116.688,3.72,-3.5,12.52,-0.75,-26.5,98.125,-0.63739,-0.17749,-0.145691,0.735535
-149.688,-11.5,133.812,4.05,-3.21,12.55,0,-26.375,96.5,-0.64801,-0.170227,-0.152466,0.726562
-153.938,-14.25,153,4.24,-2.47,12.51,0.75,-26.25,94.6875,-0.659668,-0.162903,-0.158875,0.716248
-155.125,-14.875,171.312,4.55,-1.95,12.69,1.4375,-26.125,92.6875,-0.672241,-0.15564,-0.165039,0.704712
-155.125,-15,188.375,4.67,-1.68,12.67,2.0625,-26.0625,90.5,-0.685547,-0.148499,-0.170959,0.691895
-155.75,-16.875,204.938,4.6,-1.51,12.49,2.625,-26,88.1875,-0.699585,-0.141479,-0.176392,0.677856
-154.812,-19.0625,219.5,5.08,-0.74,13.44,3,-25.875,85.6875,-0.71405,-0.134644,-0.181274,0.662659
-151.188,-18.8125,233.188,5.43,-0.45,13.9,3.375,-25.875,83.125,-0.728882,-0.128235,-0.185669,0.646423
-144.812,-18.375,247.188,5.64,-0.24,14.25,3.5625,-25.8125,80.375,-0.744019,-0.122192,-0.189697,0.628906
-144.812,-17.5,261.938,5.72,0.21,14.37,3.75,-25.8125,77.5,-0.75946,-0.116333,-0.193481,0.610107
-144,-14.5,276.375,5.75,0.51,14.3,3.875,-25.875,74.5,-0.775085,-0.11084,-0.197205,0.589966
-144.25,-8.9375,289.75,5.75,0.8,14.12,3.875,-25.9375,71.375,-0.79071,-0.105713,-0.20105,0.568481
-144.188,-1.5,302.5,5.83,1.02,13.96,3.8125,-26.125,68.125,-0.806213,-0.101196,-0.205017,0.545654
-143.125,4.625,315.375,6.11,1.72,14.26,3.6875,-26.375,64.75,-0.821533,-0.097229,-0.209045,0.521484
-141.062,9.25,328.188,5.98,2.03,14.41,3.4375,-26.6875,61.3125,-0.836609,-0.09375,-0.213013,0.495911
-138.812,12,339.188,5.62,2.29,14.34,3.125,-27,57.6875,-0.851257,-0.0905151,-0.216919,0.469177
-138.625,14.875,346.375,5.39,2.4,14.48,2.8125,-27.3125,54,-0.865356,-0.0874023,-0.220703,0.441345
-139.25,20.375,348.688,4.94,2.57,14.94,2.375,-27.625,50.3125,-0.878601,-0.0843506,-0.224792,0.412903
-140.625,28.125,346.875,4.8,2.49,15.16,2,-28.0625,46.625,-0.890686,-0.0811157,-0.229309,0.383972
-144.75,36.875,341.75,4.61,2.44,15.34,1.75,-28.5,42.9375,-0.901672,-0.0774536,-0.234558,0.354919
-152,47.5,334.562,4.63,2.51,15.59,1.5,-29.0625,39.3125,-0.911377,-0.0731201,-0.240784,0.325745
-162.438,58.375,325.812,5.4,3.01,16.45,1.4375,-29.75,35.6875,-0.919739,-0.0678101,-0.247925,0.29657
-175.438,69.25,316.562,5.88,2.98,16.49,1.5,-30.5,32.1875,-0.92688,-0.0614014,-0.256165,0.267456
-189.75,77.625,308.312,6,2.56,15.99,1.6875,-31.3125,28.625,-0.932739,-0.053894,-0.265076,0.238403
-202.625,78.1875,300.812,5.93,2.01,15.48,1.9375,-32.1875,25.1875,-0.9375,-0.0455933,-0.273987,0.209534
-211.062,72.1875,292.125,5.7,1.49,15.83,2.25,-32.9375,21.75,-0.941406,-0.0366211,-0.282227,0.181091
-214.312,62.25,280.938,5.56,1.41,16.04,2.5625,-33.6875,18.4375,-0.944458,-0.0270386,-0.28949,0.15332
-216.75,49.625,266.688,5.5,1.39,16.15,3,-34.3125,15.1875,-0.946777,-0.0165405,-0.295593,0.126465
-221,37.8125,250.875,5.75,1.47,16.11,3.5,-34.8125,12.0625,-0.948425,-0.00506592,-0.300537,0.100647
-227.062,30.0625,235.25,6.14,1.47,15.85,4.25,-35.25,9.125,-0.949402,0.00762939,-0.304749,0.0757446
-235.812,25.375,223.625,6.43,1.49,15.54,5.0625,-35.6875,6.1875,-0.949646,0.0213623,-0.30835,0.0515137
-245.75,20.1875,217.938,6.82,1.7,15.61,6.0625,-36.0625,3.25,-0.949219,0.0360107,-0.31134,0.0274048
-254.25,20.1875,217.188,6.95,2.29,15.76,7.0625,-36.4375,0.375,-0.94812,0.0511475,-0.313782,0.00317383
-260.625,16,218.25,6.97,2.31,15.62,8.0625,-36.875,357.375,-0.946228,0.0664673,-0.315796,-0.0212402
-264.125,13.5,218.5,7.01,2.22,15.37,9,-37.3125,354.438,-0.943604,0.081665,-0.317505,-0.0455933
-263.062,13.375,217.812,6.9,1.93,14.99,9.9375,-37.8125,351.5,-0.940247,0.0964355,-0.31897,-0.0697632
-258.125,10.75,215.438,6.56,1.09,14.13,10.75,-38.25,348.562,-0.93634,0.110413,-0.320007,-0.0935059
-249.375,10.75,215.438,6.46,0.85,13.83,11.5,-38.6875,345.688,-0.931946,0.123657,-0.320251,-0.116638
-239.938,4,212.062,6.32,0.83,13.82,12.125,-39.0625,342.875,-0.927368,0.136108,-0.319519,-0.139343
-231.188,-18.5625,205.312,6.05,1.02,13.96,12.6875,-39.3125,340.062,-0.922546,0.147949,-0.317688,-0.161682
-225.438,-29.6875,202.938,5.95,1.65,14.21,13.25,-39.5,337.312,-0.91748,0.159424,-0.314758,-0.183777
-222.938,-37.0625,202.312,5.99,2.03,14.2,13.75,-39.5625,334.562,-0.911987,0.170715,-0.311035,-0.205811
-223.188,-37.0625,202.312,5.83,2.41,14.17,14.25,-39.6875,331.75,-0.906006,0.181824,-0.306885,-0.227905
-223.375,-40.1875,203.688,5.28,2.88,13.25,14.6875,-39.8125,328.938,-0.899353,0.192749,-0.302612,-0.249939
-223.375,-37.25,205.938,5.23,3,12.78,15.1875,-40,326.062,-0.892029,0.203552,-0.298279,-0.27179
-222.875,-34.125,205.062,5.15,3.05,12.26,15.625,-40.1875,323.25,-0.884094,0.214172,-0.294128,-0.293274
-220.188,-33.125,203.688,4.98,3.13,11.84,16.0625,-40.4375,320.5,-0.875732,0.224304,-0.289856,-0.314331
-215.375,-33.125,203.688,4.98,3.29,11.28,16.375,-40.625,317.75,-0.867004,0.233826,-0.2854,-0.334961
-209.375,-36.125,201.625,4.81,3.41,11.15,16.625,-40.8125,315,-0.858093,0.242676,-0.280396,-0.355103
-203.438,-47.8125,194.188,4.72,3.44,10.93,16.875,-40.875,312.312,-0.849121,0.250854,-0.274902,-0.374756
-197.625,-54.875,188.875,4.73,3.51,10.8,17.125,-40.9375,309.75,-0.840149,0.258423,-0.26886,-0.393799
-191.812,-64.3125,183.75,4.91,3.57,10.61,17.25,-40.8125,307.188,-0.831177,0.265259,-0.262024,-0.412415
-186.25,-64.3125,183.75,4.91,3.57,10.76,17.375,-40.6875,304.688,-0.822327,0.271301,-0.254456,-0.430542
-180.375,-74.25,179.312,5.06,3.64,11.1,17.5,-40.4375,302.25,-0.813538,0.27655,-0.246338,-0.448303
-174.5,-92.75,175.812,5.1,3.77,11.31,17.5,-40.0625,299.812,-0.804626,0.280945,-0.23761,-0.466003
-169.375,-104.125,177.312,4.56,3.87,11.6,17.5,-39.625,297.375,-0.795654,0.284424,-0.22821,-0.483704
-164.125,-112.688,178.812,4.37,4.04,11.56,17.375,-39.125,294.938,-0.786499,0.286926,-0.218445,-0.501343
-158.312,-112.688,178.812,4.37,4.04,11.56,17.25,-38.5625,292.5,-0.777222,0.288635,-0.208557,-0.518738
-151.312,-116.812,179.125,4.31,4.16,11.5,17.0625,-37.9375,290.125,-0.767822,0.289673,-0.19873,-0.535767
-143.75,-121.125,178.062,4.2,3.85,11.36,16.875,-37.375,287.812,-0.758301,0.289978,-0.189026,-0.552429
-136.125,-124.875,177.188,4.25,3.59,11.36,16.625,-36.6875,285.5,-0.748718,0.289429,-0.179321,-0.568787
-128.25,-131.062,176.188,4.37,3.36,11.44,16.3125,-35.9375,283.25,-0.739136,0.288025,-0.169556,-0.584839
-120.312,-131.062,176.188,4.47,3.2,12.22,15.9375,-35.125,281,-0.729492,0.285461,-0.159485,-0.600708
-111.812,-140.812,176.562,4.6,3.26,13.01,15.5,-34.1875,278.812,-0.719849,0.281616,-0.149048,-0.616638
-103.312,-166.438,181.25,4.57,3.1,13.85,15,-33.0625,276.562,-0.710083,0.276428,-0.138184,-0.63269
-96.4375,-179.562,185,4.48,2.99,14.72,14.5625,-31.8125,274.312,-0.699951,0.270142,-0.12677,-0.648865
-92.125,-191,188.562,4.53,2.91,16.72,14.0625,-30.5,272,-0.689392,0.262878,-0.114868,-0.665161
-89.875,-191,188.562,4.47,2.85,17.53,13.625,-29.0625,269.688,-0.678345,0.255005,-0.102478,-0.681458
-89.75,-198.688,192.062,4.42,2.68,18.27,13.25,-27.625,267.375,-0.666687,0.246887,-0.0897217,-0.69751
-91.8125,-202.875,195.25,4.26,2.5,18.87,13.0625,-26.125,265.062,-0.654541,0.238708,-0.0767822,-0.713257
-95.125,-199.875,193.688,4.21,2.29,19.6,12.9375,-24.6875,262.75,-0.641907,0.230896,-0.0635986,-0.728394
-100,-197.375,192.125,4.18,2.26,19.91,13,-23.25,260.438,-0.628906,0.22345,-0.0499878,-0.743042
-107.062,-197.375,192.125,4.18,2.25,20.25,13.125,-21.8125,258.125,-0.615234,0.21637,-0.0360107,-0.757202
-115.062,-195.438,193.062,4,1.91,20.45,13.4375,-20.4375,255.812,-0.600708,0.209839,-0.0217285,-0.771118
-123.625,-187.75,204.812,2.09,1.79,20.32,13.875,-19.125,253.375,-0.585205,0.203857,-0.00726318,-0.78479
-131.688,-183.438,211.438,1.51,1.73,20.4,14.4375,-17.9375,250.875,-0.568726,0.198364,0.00738525,-0.798218
-139.188,-176.5,213.125,0.79,1.71,20.71,15.0625,-16.8125,248.438,-0.551575,0.193542,0.0220947,-0.811035
-145.25,-176.5,213.125,0.79,1.71,21.59,15.8125,-15.75,245.938,-0.534424,0.189392,0.0367432,-0.822937
-150.312,-166.938,207.812,-0.7,1.14,22.32,16.6875,-14.8125,243.625,-0.517639,0.185669,0.0517578,-0.833618
-155.625,-166.562,181.188,-2.12,0.63,23,17.75,-13.8125,241.438,-0.501404,0.181824,0.067688,-0.843201
-163.312,-176.688,165.25,-2.63,0.55,23.88,18.9375,-12.6875,239.375,-0.485779,0.17749,0.085022,-0.851624
-174.312,-182.562,149.5,-3.16,0.63,25.35,20.375,-11.5,237.438,-0.470764,0.173096,0.10376,-0.858887
-187.562,-182.562,149.5,-3.16,0.63,25.35,21.9375,-10.3125,235.562,-0.456116,0.169312,0.123657,-0.864868
-204,-180.125,136.625,-3.37,0.79,25.68,23.8125,-9.3125,233.812,-0.44165,0.166565,0.144714,-0.869629
-223,-159.312,121.938,-4.76,1.41,24.66,25.875,-8.375,232.125,-0.427185,0.165283,0.166626,-0.873169
-241.75,-139.5,115.062,-5.83,1.17,22.86,28.125,-7.6875,230.5,-0.413025,0.165771,0.188843,-0.875366
-255.5,-114.312,104.5,-6.16,0.89,22.19,30.4375,-7.1875,229,-0.399719,0.16803,0.210571,-0.87616
-260.625,-114.312,104.5,-6.16,0.67,21.74,32.8125,-6.9375,227.688,-0.387573,0.171814,0.231262,-0.875671
-257.438,-88.125,91.8125,-6.31,0.7,21.68,35.125,-6.8125,226.625,-0.376831,0.176575,0.250793,-0.874023
-250.938,-49.375,63.875,-5.43,0.9,21.55,37.375,-6.8125,225.688,-0.36731,0.182068,0.269531,-0.871399
-246.562,-36.75,54,-5.33,1.09,20.98,39.75,-6.875,224.875,-0.358582,0.188232,0.288025,-0.867737
-247.938,-25.6875,47.4375,-5.38,1.13,20.32,42.125,-7,224.125,-0.350403,0.195129,0.306519,-0.863281
-252.812,-25.6875,47.4375,-5.38,1.13,18.86,44.5625,-7.1875,223.5,-0.34259,0.202698,0.32489,-0.857849
-256.938,-14.6875,42.0625,-5.31,1.05,18.27,47,-7.375,222.938,-0.335449,0.210938,0.342957,-0.851685
-257.75,14.125,30.625,-5.2,0.85,17.53,49.4375,-7.6875,222.5,-0.329041,0.220032,0.360291,-0.844727
-255,33.25,25.6875,-5.09,0.82,16.76,51.875,-8.125,222.25,-0.323486,0.230103,0.376648,-0.837036
-249.938,74.25,20.75,-4.97,0.9,14.94,54.25,-8.6875,222.188,-0.319702,0.242371,0.390747,-0.828491
-235.25,74.25,20.75,-4.97,0.9,14.94,56.5,-9.375,222.25,-0.316772,0.255615,0.403442,-0.819458
-224.938,93.6875,19.5,-5.02,0.95,14.28,58.8125,-10,222.312,-0.313721,0.268738,0.416016,-0.81012
-224.938,129.062,14.5625,-4.77,1.02,13.39,61,-10.75,222.625,-0.312561,0.283386,0.426147,-0.800232
-204.125,146.312,11.5625,-4.08,0.65,12.48,63.125,-11.5,223.125,-0.312256,0.298828,0.43512,-0.789856
-195.062,165.125,8.3125,-3.71,0.52,11.96,65.1875,-12.3125,223.75,-0.312988,0.315002,0.442871,-0.77887
-186.625,165.125,8.3125,-3.71,0.52,11.96,67.3125,-13.0625,224.562,-0.314697,0.331909,0.449524,-0.767273
-178.875,183.25,5.5625,-3.26,0.46,11.38,69.375,-13.8125,225.5,-0.317078,0.349487,0.4552,-0.755066
-172.25,216.312,2.625,-2.12,0.45,9.7,71.5,-14.5,226.625,-0.320251,0.367737,0.459778,-0.742188
-165.625,232.062,1,-1.85,0.46,9.12,73.5625,-15.1875,227.938,-0.324219,0.386536,0.463257,-0.728638
-158.375,246.875,-1.375,-1.58,0.41,8.71,75.6875,-15.8125,229.438,-0.328979,0.40564,0.465637,-0.714478
-150,246.875,-1.375,-1.58,0.41,7.92,77.75,-16.375,231.125,-0.334656,0.424988,0.466858,-0.699585
-140.125,261.562,-5.5,-1.21,0.45,7.92,79.8125,-16.75,233.062,-0.341553,0.444397,0.466919,-0.684021
-129.125,291.438,-19.6875,-0.55,0.4,7.06,81.8125,-17,235.25,-0.34967,0.463684,0.465881,-0.667603
-117.375,302,-26.8125,0,0.4,6.7,83.6875,-17.125,237.75,-0.358826,0.482544,0.463745,-0.650635
-105.188,309.75,-33,1.06,0.45,6.08,85.5625,-17.0625,240.438,-0.368835,0.500916,0.460693,-0.633118
-93.5625,309.75,-33,1.06,0.45,6.08,87.3125,-16.9375,243.312,-0.379517,0.518677,0.456726,-0.615112
-82.4375,315.5,-38.75,1.54,0.51,5.77,88.9375,-16.5625,246.438,-0.390808,0.535706,0.452026,-0.596619
-72.4375,319.75,-49.0625,2.53,0.45,5.32,90.4375,-16.125,249.688,-0.402649,0.552002,0.446533,-0.577759
-62.875,323.5,-52.5,3.43,0.41,4.88,91.875,-15.5625,253.188,-0.414917,0.567627,0.440247,-0.558411
-53.625,328.5,-54.3125,3.73,0.56,4.51,93.1875,-14.875,256.875,-0.427551,0.582642,0.433105,-0.538574
-45.0625,333.438,-54.3125,3.73,0.56,4.51,94.375,-14.125,260.688,-0.44043,0.597107,0.42511,-0.518433
-36.5625,338.062,-54.5625,4.1,0.72,4.1,95.4375,-13.3125,264.625,-0.453552,0.611023,0.415955,-0.497925
-26.625,344.25,-49.1875,5.64,1.1,2.25,96.375,-12.5,268.75,-0.467041,0.624329,0.405457,-0.477173
-14.5,351.625,-42.4375,6.09,0.92,1.45,97.0625,-11.6875,272.938,-0.480835,0.636902,0.393311,-0.456482
1.8125,357.125,-33.1875,6.18,0.67,0.76,97.5,-10.9375,277.125,-0.494995,0.648376,0.379578,-0.436462
22.25,357.375,-33.1875,6.18,0.67,0.76,97.6875,-10.25,281.25,-0.509338,0.658264,0.364441,-0.417664
46.5,348.75,-24.0625,5.89,0.38,-0.01,97.5625,-9.625,285.25,-0.52417,0.666077,0.348389,-0.400269
72.875,334.875,-20.8125,5.28,0.52,0.39,97.125,-9.0625,289.125,-0.539673,0.671631,0.331848,-0.384033
98.625,321.062,-29.3125,4.97,0.47,0.7,96.375,-8.4375,292.875,-0.555969,0.674988,0.315369,-0.368469
122.062,308.312,-41.8125,5.47,0.5,1.34,95.375,-7.6875,296.688,-0.573181,0.676208,0.299194,-0.353149
143.062,298.875,-41.8125,5.47,0.5,1.34,94.1875,-6.9375,300.5,-0.591187,0.675537,0.283142,-0.337585
161,294.688,-54.9375,5.97,0.53,1.58,92.8125,-6.125,304.312,-0.609802,0.673279,0.267151,-0.321716
174.938,292.062,-72.125,7.05,0.45,2.43,91.3125,-5.3125,308.125,-0.628479,0.669678,0.251282,-0.305603
185,288.625,-76.8125,7.51,0.3,3.1,89.6875,-4.5625,311.75,-0.647034,0.664795,0.235657,-0.289612
192,280.875,-83.125,7.41,0.21,3.37,87.9375,-3.8125,315.25,-0.665283,0.65863,0.220642,-0.273743
198.375,269.125,-83.125,7.41,0.21,3.37,86.125,-3,315.25,-0.68335,0.650818,0.20697,-0.25824
206,251.062,-94.4375,7.31,0.14,3.52,84.125,-2.125,318.562,-0.701294,0.641174,0.195068,-0.24292
215.125,228.938,-130,7.61,0.03,4.34,82,-1.125,324.812,-0.719238,0.6297,0.185303,-0.227722
224.375,204.938,-149.688,7.94,0.11,4.73,79.8125,0,327.812,-0.737061,0.616516,0.177612,-0.212463
233.062,182.812,-167.625,8.34,0.26,5.18,77.4375,1.25,330.688,-0.754822,0.601624,0.171692,-0.197021
242,164.125,-167.625,8.34,0.26,5.18,74.9375,2.625,333.562,-0.772461,0.585205,0.167236,-0.181274
251,149.5,-183.25,9.25,0.84,6.66,72.3125,4.0625,336.375,-0.789978,0.567322,0.163818,-0.165161
259.938,139.438,-208.375,9.94,1.41,8.67,69.5625,5.5625,339.125,-0.807068,0.548279,0.161194,-0.14856
266.375,131.688,-221.5,10.11,1.59,9.62,66.75,7.0625,341.875,-0.823669,0.528137,0.159485,-0.131287
270,124.812,-236.125,10.83,1.86,11.28,63.875,8.6875,344.625,-0.839539,0.507141,0.158691,-0.11322
270.875,118.125,-236.125,10.83,1.86,11.28,60.875,10.3125,344.625,-0.854553,0.485413,0.158875,-0.0941772
270.375,112,-250.938,11.46,2.13,12.16,57.875,12,347.375,-0.868591,0.463074,0.159851,-0.0743408
268.75,105.188,-275.062,12.65,2.4,14.03,54.75,13.75,352.938,-0.881531,0.440247,0.161804,-0.0539551
265.438,96.125,-282.25,13.02,2.13,15.1,51.625,15.4375,355.688,-0.893188,0.417114,0.164795,-0.0333862
260.75,83.5625,-287.562,12.73,2.11,15.6,48.5,17.125,358.375,-0.903442,0.39386,0.168884,-0.0127563
254.688,69.5,-287.562,12.73,2.11,15.6,45.3125,18.8125,1,-0.912354,0.370728,0.173584,0.00811768
246.938,61.6875,-293.312,12.73,2.34,16.63,42.125,20.3125,3.6875,-0.920105,0.347656,0.177917,0.0297852
238.812,66.1875,-305.75,14.45,2.23,20.58,38.8125,21.6875,6.4375,-0.926758,0.324768,0.181274,0.0523682
230.75,78.5,-309.75,15.22,1.58,21.55,35.4375,22.8125,9.25,-0.932434,0.30188,0.183411,0.0756836
224.25,92.5625,-308.062,15.97,0.68,22.53,32.0625,23.5625,12.0625,-0.937134,0.279236,0.184204,0.0992432
216.875,106.25,-308.062,15.97,0.68,22.53,28.6875,23.5625,12.0625,-0.940857,0.25708,0.183716,0.122375
207.062,115.75,-299.438,16.08,-1.04,23.65,25.5,24.0625,14.8125,-0.943359,0.236084,0.1828,0.144592
191.75,113.938,-275.375,13.82,-1.68,23.43,22.5625,24.5625,19.875,-0.94458,0.216797,0.182251,0.165833
172.125,101.188,-270.812,12.49,-1.39,23.52,19.8125,24.6875,22.3125,-0.94458,0.199402,0.182129,0.186707
149.312,89.125,-272.5,10.78,-0.51,24.2,17.375,24.8125,24.8125,-0.943298,0.183899,0.181946,0.207886
124.375,83.1875,-272.5,10.78,-0.51,24.2,15.0625,24.75,27.375,-0.94104,0.169983,0.18103,0.229614
100.875,87.5625,-276.625,10.58,-0.41,24.85,12.9375,24.4375,30.0625,-0.938049,0.157104,0.178284,0.252258
81.8125,104.438,-289.188,10.92,-1.35,25.84,11,23.75,32.875,-0.934326,0.144653,0.17334,0.275757
67.3125,127.812,-296.188,11.38,-2.77,26.65,9.125,22.875,35.75,-0.929871,0.132751,0.166321,0.300049
51.1875,149,-302.688,11.25,-3.29,26.4,7.5625,21.8125,38.6875,-0.924377,0.12207,0.158203,0.325012
30.375,155.438,-302.688,11.25,-3.29,26.4,6.3125,21.8125,38.6875,-0.91748,0.113403,0.149841,0.350525
5.3125,149.062,-309.75,11.21,-3.43,26.46,5.375,20.75,41.8125,-0.90918,0.1073,0.141418,0.376648
-26.25,137.125,-322.75,11.85,-3.61,25.42,4.875,18.8125,48.25,-0.899414,0.104248,0.13269,0.403137
-62.875,125.188,-322.062,12.13,-4.03,24.45,4.75,17.9375,51.5625,-0.88855,0.104004,0.123108,0.429565
-98.25,119.062,-315.562,12.39,-4.59,23.46,5,17,54.875,-0.876831,0.105774,0.112,0.455444
-126.938,122.125,-315.562,12.39,-4.59,23.46,5.5,16,58.0625,-0.864685,0.108765,0.0993042,0.480286
-148.312,130.875,-303.688,13.18,-5.86,21.13,6.3125,14.9375,61.125,-0.852417,0.112549,0.0848999,0.50354
-163.75,141.812,-260.062,13.7,-6.7,19.49,7.3125,13.75,63.9375,-0.840393,0.116882,0.0689087,0.524719
-176.5,151.625,-231.812,13.91,-6.82,18.97,8.5625,12.5625,66.5,-0.828796,0.121887,0.0513916,0.54364
-189.688,159.688,-203.375,14.1,-6.56,18,10.0625,11.25,68.8125,-0.81781,0.127563,0.0324707,0.560242
-203.625,166.562,-203.375,14.1,-6.56,18,10.0625,11.25,68.8125,-0.80719,0.133972,0.0120239,0.574768
-219.562,173.5,-177.062,14.49,-6.43,17.49,11.8125,9.9375,70.875,-0.797058,0.141174,-0.00994873,0.587097
-236.375,179.188,-126.438,15.35,-6.12,15.66,16,7.1875,74.375,-0.787292,0.149109,-0.0332031,0.597351
-251.188,182.438,-100.312,16.06,-6.11,13.63,18.375,5.8125,75.75,-0.778137,0.15741,-0.057312,0.605347
-261.188,183.625,-73.0625,16.12,-6.08,12.63,20.875,4.375,76.875,-0.769653,0.165894,-0.0819092,0.611084
-266.562,182.625,-73.0625,16.12,-6.08,12.63,23.375,2.9375,76.875,-0.762024,0.174255,-0.106812,0.614441
-268.125,180.562,-45.3125,16.08,-5.88,11.73,25.9375,1.4375,77.75,-0.755249,0.182251,-0.131897,0.615662
-267.5,178.938,5.4375,14.91,-5.17,9.2,28.5,-0.0625,78.75,-0.749146,0.189819,-0.157104,0.614868
-265.25,177.938,25.3125,14.49,-5.23,8.37,31.0625,-1.6875,78.9375,-0.743652,0.196899,-0.18219,0.612366
-262.5,176,42.1875,14.15,-5.61,7.44,33.5625,-3.3125,78.9375,-0.738647,0.203613,-0.20697,0.608337
-259.125,170.75,42.1875,14.15,-5.61,7.44,33.5625,-3.3125,78.9375,-0.738647,0.210083,-0.230957,0.602905
-253.25,161.062,57.1875,13.42,-6.63,5.83,36.0625,-4.875,78.75,-0.734192,0.216309,-0.253723,0.596191
-245.375,147.562,83.75,12.7,-7.19,4.82,40.8125,-7.9375,77.875,-0.727173,0.222412,-0.275269,0.588196
-236.75,132.062,96.8125,12.26,-7.08,4.4,43,-9.375,77.1875,-0.724792,0.228455,-0.295593,0.578918
-230.312,116.25,110.062,12.1,-6.34,3.99,45.1875,-10.875,76.3125,-0.723022,0.234497,-0.315002,0.568359
-226.75,102.5,110.062,12.1,-6.34,3.99,47.375,-10.875,76.3125,-0.721802,0.240295,-0.334106,0.556458
-225.812,95.9375,125.125,12.41,-5.87,3.85,49.5,-12.375,75.25,-0.721069,0.245544,-0.35321,0.543091
-225.875,93.6875,163.5,12.24,-5.4,2.34,51.5625,-15.8125,72.4375,-0.721069,0.250183,-0.372192,0.528137
-224,88.75,184.188,10.92,-4.92,0.9,53.5,-17.6875,70.625,-0.721924,0.254028,-0.390564,0.511597
-218.188,79.8125,202.438,10.23,-4.39,0.92,55.375,-19.625,68.5625,-0.723694,0.25708,-0.40802,0.493652
-209.688,68.875,202.438,10.23,-4.39,0.92,57.0625,-21.6875,68.5625,-0.726074,0.25946,-0.424622,0.474609
-201.688,58.625,215.938,9.52,-3.77,1.27,58.625,-23.8125,66.3125,-0.72876,0.261414,-0.440125,0.454834
-195.25,48.375,226.312,7.51,-2.93,1.31,60.0625,-25.8125,61.375,-0.73175,0.263184,-0.454468,0.434509
-189.188,35.4375,224.688,6.88,-2.7,1.23,61.4375,-27.8125,58.75,-0.734863,0.265015,-0.467407,0.41394
-183.562,21.8125,220.312,6.36,-2.44,1.2,62.625,-29.75,56.0625,-0.738098,0.267151,-0.478821,0.393188
-179.188,6.125,220.312,6.36,-2.44,1.2,62.625,-29.75,56.0625,-0.738098,0.269775,-0.488831,0.372192
-177.438,-10.375,215.875,5.66,-1.5,1.35,63.75,-31.5625,53.3125,-0.741455,0.272888,-0.497437,0.35083
-178.125,-26.8125,209.438,4.66,-0.61,1.13,65.625,-35,47.4375,-0.748657,0.276672,-0.504761,0.328979
-180.312,-43.125,206.812,4.07,-0.26,1.03,66.4375,-36.5625,44.3125,-0.752502,0.281006,-0.510681,0.306641
-182.625,-60.75,203.438,3.08,0.47,1.03,67.125,-38.0625,41.125,-0.756531,0.285828,-0.515198,0.283813
-184.125,-77.8125,203.438,3.08,0.47,1.03,67.625,-38.0625,41.125,-0.76062,0.291138,-0.518311,0.260742
-184.75,-92.5,198.938,2.55,0.82,1.08,68,-40.875,37.8125,-0.764771,0.296753,-0.520264,0.23761
-184.312,-105.375,187.5,1.66,1.44,0.98,68.25,-42.125,31.125,-0.768799,0.30249,-0.520996,0.214478
-182.312,-115.562,180,1.02,1.95,0.85,68.375,-43.3125,27.8125,-0.772705,0.30835,-0.52063,0.191711
-178.75,-123.625,172.188,0.79,2.13,0.79,68.375,-44.375,24.5625,-0.776428,0.314148,-0.519348,0.169434
-174,-129.125,172.188,0.79,2.13,0.79,68.1875,-45.4375,24.5625,-0.779907,0.319763,-0.517395,0.147766
-168.5,-131.188,164,0.66,2.26,0.76,68,-46.3125,21.4375,-0.78302,0.325256,-0.514832,0.126709
-163.188,-132.312,149,0.32,2.39,0.33,67.6875,-47.1875,15.375,-0.785889,0.330566,-0.511658,0.106323
-157.812,-133.312,142.062,0.17,2.37,0.22,67.25,-47.9375,12.5,-0.788513,0.335693,-0.507996,0.0865479
-151.938,-133.938,134.188,0,2.3,0.12,66.75,-48.625,9.75,-0.791016,0.340515,-0.503723,0.0675049
-145.375,-135.312,134.188,0,2.3,0.12,66.75,-48.625,9.75,-0.791016,0.345154,-0.498657,0.0491943
-138.562,-140.312,125.75,-0.16,2.33,0,66.0625,-49.1875,7.0625,-0.793579,0.349609,-0.492554,0.0314331
-132,-148.875,108.688,-0.15,2.37,0.14,64.3125,-49.9375,2,-0.799438,0.353882,-0.485291,0.0141602
-125.562,-159.938,100.562,0.03,2.41,0.41,63.1875,-50.0625,359.562,-0.802856,0.357971,-0.476746,-0.00268555
-119.25,-171.812,93.6875,0.08,2.4,0.66,61.875,-50.0625,357.25,-0.806702,0.361755,-0.466919,-0.019165
-113.188,-184.438,93.6875,0.08,2.4,0.66,60.375,-50.0625,357.25,-0.810974,0.365051,-0.455811,-0.0354004
-105.625,-198.625,88.4375,0.02,2.28,0.77,60.375,-49.875,354.938,-0.815796,0.367615,-0.443481,-0.0513916
-95.25,-212.188,79.9375,-0.45,2.13,1.32,56.9375,-49.0625,350.625,-0.821045,0.369263,-0.430237,-0.0668945
-82.25,-222.375,73.375,-1.36,2.35,2.67,55,-48.4375,348.688,-0.82666,0.369934,-0.416138,-0.081604
-68.3125,-229.25,63.0625,-1.87,2.46,3.46,53.125,-47.5625,346.938,-0.83252,0.369873,-0.401245,-0.0952148
-55.25,-234.25,63.0625,-1.87,2.46,3.46,51.3125,-47.5625,346.938,-0.838562,0.369507,-0.385681,-0.107483
-45.5,-235.938,47.625,-1.97,2.59,4.19,49.6875,-46.5625,345.375,-0.844543,0.36908,-0.369507,-0.118103
-38.875,-235.438,11.4375,-0.75,2.95,5.94,48.25,-43.875,342.938,-0.850647,0.368713,-0.352478,-0.12738
-34.1875,-238,-1.25,-0.17,2.79,6.35,46.8125,-42.25,341.938,-0.856995,0.367981,-0.334229,-0.135803
-27.4375,-248.312,-9.375,0.17,2.58,6.83,45.4375,-40.4375,341.062,-0.863831,0.366333,-0.314575,-0.143799
-16.5,-263.875,-9.375,0.17,2.58,6.83,45.4375,-40.4375,341.062,-0.863831,0.366333,-0.293457,-0.151245
-2.875,-280.312,-16.875,0.54,2.72,8.91,44,-38.375,340.25,-0.871155,0.363525,-0.270752,-0.158386
9.0625,-299.125,-31.25,0.96,3.61,11.87,41.0625,-33.625,338.875,-0.88678,0.354492,-0.246216,-0.165283
17.5625,-319.75,-36.0625,1.09,4.05,13.7,39.6875,-30.875,338.188,-0.894653,0.348633,-0.220093,-0.172119
23.5,-337.125,-39.3125,0.09,4,16.75,38.375,-28,337.562,-0.902161,0.34198,-0.192932,-0.178833
28.5625,-348.312,-39.3125,0.09,4,16.75,38.375,-28,337.562,-0.909119,0.334595,-0.165405,-0.184875
35.125,-350.312,-44.3125,-1.02,3.64,17.12,37.125,-25.0625,337,-0.915649,0.326416,-0.138245,-0.189575
45.0625,-342,-55.625,-2.26,3.35,16.98,35,-19.125,336.438,-0.921814,0.317627,-0.112061,-0.191895
56.6875,-322.875,-75.1875,0.33,4.83,19.36,34.125,-16.25,336.625,-0.927612,0.308533,-0.0871582,-0.191711
64.5,-299,-97.1875,1.53,4.79,20.29,33.3125,-13.375,336.938,-0.932861,0.299622,-0.0631104,-0.189941
64.75,-283.562,-110,1.53,4.79,20.29,33.3125,-13.375,336.938,-0.937439,0.290466,-0.0392456,-0.187988
64.6875,-280.625,-109.5,2.1,3.91,20.36,32.5625,-10.5,337.312,-0.941406,0.280579,-0.0158081,-0.186523
72.25,-279.438,-101.188,0.21,1.81,21.33,30.875,-4.9375,337.75,-0.944946,0.26947,0.00695801,-0.185608
85.125,-275.312,-91.375,-0.66,1.86,22.17,29.875,-2.3125,337.875,-0.94812,0.257141,0.0288086,-0.184875
100.438,-269.438,-86.125,-1.24,2.35,23.62,28.8125,0.1875,338.125,-0.95105,0.243958,0.0491943,-0.183289
111.375,-251.688,-90.1875,-1.24,2.35,23.62,28.8125,0.1875,338.125,-0.95105,0.243958,0.0491943,-0.183289
110.438,-221.75,-102.875,-2.23,3.08,24.98,27.75,2.5625,338.562,-0.953735,0.231201,0.0673828,-0.180054
99.125,-189.125,-120.875,-2.64,3.13,23.8,25.875,6.75,340.25,-0.958557,0.209351,0.0977783,-0.166504
84.3125,-160.062,-142.5,-2.49,3.2,23.09,25.0625,8.625,341.5,-0.960876,0.200256,0.110718,-0.156128
71.375,-136.312,-165.062,-1.45,3.46,22.43,24.3125,10.375,343,-0.963074,0.191956,0.12262,-0.143555
61.3125,-118.312,-186.25,-1.45,3.46,22.43,24.3125,10.375,343,-0.963074,0.191956,0.12262,-0.12915
52.875,-104.5,-204.312,-1.01,3.28,21.98,23.5,12.125,344.75,-0.965149,0.184204,0.133789,-0.113281
46.4375,-92.0625,-218.25,-0.79,2.96,20.7,21.8125,15.3125,348.625,-0.968689,0.169739,0.153503,-0.0962524
43.875,-77.875,-229.625,-0.55,2.98,19.82,20.8125,16.75,350.75,-0.970276,0.162415,0.161682,-0.0780029
44.75,-62.75,-240.438,-0.28,3.04,19.89,19.6875,18,353.062,-0.971741,0.154785,0.168457,-0.0585938
47.4375,-45.0625,-251.938,-0.28,3.04,19.89,19.6875,18,353.062,-0.971741,0.14679,0.173584,-0.0379028
49.75,-23.8125,-264.375,0.32,3.06,20.18,18.375,19.0625,355.5,-0.973083,0.13855,0.17688,-0.0159302
50.1875,-1,-276.375,3.05,1.95,21.07,15.5,20.4375,0.8125,-0.975281,0.130127,0.178284,0.00720215
49.9375,22.375,-287.188,4.07,1.4,21.3,13.9375,20.75,3.625,-0.976013,0.121521,0.177856,0.0313721
49.25,44.75,-296.375,5,0.86,21.35,12.375,20.8125,6.5625,-0.976379,0.112854,0.175598,0.0562744
47.4375,65.625,-303.062,5,0.86,21.35,12.375,20.8125,6.5625,-0.976379,0.104126,0.171814,0.0817261
45.1875,83.5625,-307.688,6.24,0.06,20.9,10.75,20.625,9.5625,-0.976196,0.095459,0.166626,0.107483
42.4375,98.25,-309.875,7.05,-0.57,20.38,7.6875,19.5625,15.5625,-0.974121,0.086731,0.1604,0.133423
39.875,109.5,-310.938,7.41,-0.93,20.27,6.1875,18.8125,18.5625,-0.972168,0.0780029,0.153198,0.159241
38.125,120,-310.625,8.55,-1.93,20.56,4.8125,17.8125,21.5625,-0.969543,0.0691528,0.144897,0.184875
37.1875,131.125,-308.562,8.55,-1.93,20.56,4.8125,17.8125,21.5625,-0.969543,0.0601807,0.135315,0.210083
36.625,144.938,-303.875,9.15,-2.58,20.72,3.5,16.625,24.5,-0.966431,0.0509644,0.124268,0.234558
35.8125,160.562,-295.625,9.57,-3.95,20.74,1.3125,13.625,30.0625,-0.95874,0.0418091,0.112,0.257935
33.5625,173.688,-284,9.28,-4.73,20.84,0.4375,11.9375,32.6875,-0.954285,0.032959,0.0987549,0.280212
28.25,182.438,-271.5,9.22,-4.96,20.8,-0.1875,10.125,35.1875,-0.949341,0.0248413,0.0847168,0.301514
18.25,188,-261.5,9.22,-4.96,20.8,-0.1875,10.125,35.1875,-0.949341,0.0248413,0.0847168,0.301514
4.125,191.75,-252.562,9.19,-5.27,20.4,-0.625,8.25,37.625,-0.94397,0.0178223,0.0699463,0.322021
-11.5625,193.688,-244.25,9.05,-6.36,18.31,-0.75,4.375,42.25,-0.931885,0.00744629,0.0385742,0.360596
-26.9375,195.062,-235.438,8.95,-6.67,17.63,-0.5,2.5,44.5,-0.925293,0.00396729,0.0219727,0.37854
-41,196.375,-226.125,8.87,-6.93,17.08,-0.0625,0.5625,46.5625,-0.918457,0.00152588,0.00500488,0.395447
-53.9375,196.188,-215.75,8.87,-6.93,17.08,-0.0625,0.5625,46.5625,-0.918457,0.00152588,0.00500488,0.395447
-67.1875,194.125,-205.312,8.9,-7.49,16.37,0.5625,-1.25,48.5625,-0.911438,0.00012207,-0.0122681,0.411316
-81.625,190.125,-195,8.93,-8.09,15.95,2.5,-4.75,52.25,-0.89679,0.00146484,-0.0471802,0.440002
-98.5,181.625,-186.125,9.22,-8.36,15.68,3.8125,-6.3125,54,-0.88916,0.00476074,-0.0643921,0.453064
-117.375,170.375,-180,10.87,-8.87,14.79,5.375,-7.6875,55.625,-0.881287,0.0098877,-0.081665,0.465393
-137.562,161.062,-175.312,10.87,-8.87,14.79,5.375,-7.6875,55.625,-0.881287,0.0098877,-0.081665,0.476807
-157.125,153.125,-167.625,11.87,-9.05,14.3,7.1875,-9,57.25,-0.87323,0.0167236,-0.0990601,0.486694
-176.375,144.875,-153.5,13.66,-9.18,13.19,11.3125,-11.25,59.875,-0.857971,0.0350342,-0.13446,0.494568
-195.25,138.562,-131.812,14.6,-8.48,11.69,13.6875,-12.375,60.8125,-0.851196,0.0460205,-0.152954,0.499939
-214.188,136.438,-103.5,14.62,-7.83,10.88,16.125,-13.4375,61.4375,-0.845337,0.0578003,-0.172363,0.50238
-232.812,137.625,-70.3125,14.62,-7.83,10.88,16.125,-13.4375,61.4375,-0.845337,0.0578003,-0.172363,0.501831
-250.062,140,-35.8125,14.52,-7.15,9.96,18.75,-14.625,61.6875,-0.840271,0.0702515,-0.192749,0.498413
-264.438,141,-2.5625,13.35,-5.59,7.03,24.1875,-17.25,61.1875,-0.832458,0.0959473,-0.235413,0.49231
-273.812,140.438,27.3125,12.78,-5.13,6.31,26.875,-18.6875,60.5,-0.829407,0.108643,-0.256958,0.484009
-277.312,137.562,52.9375,12.23,-4.67,5.82,29.5625,-20.1875,59.625,-0.826721,0.120972,-0.278137,0.473877
-276.688,131.812,74.25,12.23,-4.67,5.82,29.5625,-20.1875,59.625,-0.826721,0.120972,-0.298584,0.462097
-274.375,124.125,92.375,11.77,-4.19,5.54,32.1875,-21.625,58.5,-0.824402,0.132935,-0.318298,0.448853
-271.812,115.062,107.75,10.37,-2.98,4.95,37.125,-24.6875,55.75,-0.820557,0.156067,-0.337219,0.434265
-270.125,105,121.375,9.83,-2.65,4.77,39.5625,-26.1875,54.125,-0.818909,0.16748,-0.355286,0.418396
-269.75,94.3125,133.75,8.6,-1.97,4.36,41.875,-27.6875,52.25,-0.817444,0.178833,-0.372498,0.401306
-270.312,82.9375,144.625,8.6,-1.97,4.36,41.875,-27.6875,52.25,-0.817444,0.178833,-0.388794,0.383057
-271.5,70.8125,154.5,8.04,-1.54,4.19,44.1875,-29.25,50.25,-0.81604,0.190247,-0.404175,0.363647
-273.688,58.875,162.688,7.18,-0.69,3.95,48.625,-32.25,45.75,-0.813171,0.21344,-0.418762,0.343262
-276.5,48.8125,169.125,6.2,-0.06,3.45,50.8125,-33.8125,43.25,-0.811462,0.225281,-0.432495,0.322083
-279.188,39.625,173.375,5.64,0.25,3.05,53,-35.3125,40.6875,-0.809509,0.237244,-0.445251,0.300232
-280.812,28.5625,175.062,5.64,0.25,3.05,53,-35.3125,40.6875,-0.809509,0.237244,-0.456726,0.277893
-281.75,14.375,174.188,5.04,0.45,2.6,55.0625,-36.75,37.9375,-0.807434,0.249512,-0.466431,0.25531
-280.312,-3.75,169.938,3.34,0.67,1.59,58.875,-39.3125,32.3125,-0.803406,0.274902,-0.47406,0.232788
-276,-25.3125,161.688,2.94,0.75,1.5,60.5625,-40.3125,29.4375,-0.801819,0.288025,-0.47937,0.210632
-269.375,-48.5625,150.062,2.57,0.78,1.43,62,-41.125,26.5,-0.800537,0.301453,-0.4823,0.188904
-262.875,-72.75,137,2.57,0.78,1.43,62,-41.125,26.5,-0.800537,0.301453,-0.4823,0.167542
-256.625,-98.5625,123,2.31,0.82,1.41,63.25,-41.75,23.625,-0.799683,0.315247,-0.482727,0.146667
-250.938,-124.25,107.688,1.42,0.69,1.38,65.125,-42.3125,17.9375,-0.799561,0.344238,-0.475708,0.126221
-246.438,-153,91.1875,1.26,0.67,1.4,65.75,-42.25,15.0625,-0.800354,0.359497,-0.467834,0.10614
-242.875,-183.312,72.875,1.22,0.45,0.96,66.1875,-41.875,12.3125,-0.801636,0.375427,-0.457092,0.0866089
-240.062,-212.375,53.0625,1.22,0.45,0.96,66.1875,-41.875,12.3125,-0.801636,0.375427,-0.457092,0.0674438
-236.625,-240.625,34.6875,1.27,0.32,0.67,66.4375,-41.25,9.5625,-0.803345,0.391724,-0.44342,0.048584
-231.188,-267.875,19.5625,1.47,0,0.01,66.5,-39.3125,4.25,-0.808044,0.423706,-0.408203,0.0300293
-221,-291.125,8.1875,1.55,-0.19,-0.17,66.3125,-38.125,1.625,-0.810913,0.438416,-0.387329,0.0117188
-207.062,-311.062,0,1.67,-0.2,0,65.9375,-36.8125,359.125,-0.814148,0.451721,-0.364746,-0.00616455
-189.75,-326.5,-6.0625,1.67,-0.2,0,65.9375,-36.8125,359.125,-0.814148,0.451721,-0.364746,-0.0234375
-171.5,-335,-10.8125,1.62,-0.05,0.05,65.5,-35.375,356.688,-0.817566,0.46344,-0.341003,-0.0401001
-154,-338.25,-15.1875,1.15,0.81,0.5,64.375,-32.3125,352.188,-0.824158,0.4823,-0.291626,-0.0558472
-137.062,-339.562,-20.8125,1.55,1.2,1.07,63.8125,-30.625,350.188,-0.827393,0.489563,-0.266113,-0.0705566
-120.25,-339.562,-29.3125,2.14,1.47,1.48,63.25,-28.8125,348.438,-0.830627,0.495361,-0.240112,-0.0840454
-102.125,-338,-39.125,2.14,1.47,1.48,63.25,-28.8125,348.438,-0.830627,0.495361,-0.240112,-0.0840454
-80.3125,-335.938,-48.625,3.05,1.48,1.92,62.625,-26.875,346.812,-0.834045,0.49939,-0.213867,-0.0963135
-51.6875,-333.125,-55.25,4.61,-0.03,4.29,60.875,-22.875,344.125,-0.842651,0.500061,-0.161499,-0.117432
-17.6875,-330.375,-57.9375,4.16,-0.44,5.15,59.75,-20.875,342.938,-0.848083,0.496155,-0.135925,-0.126831
17.25,-326.688,-58,3.45,-0.08,7.35,58.375,-18.75,341.938,-0.854126,0.489685,-0.11084,-0.13562
48.6875,-322.688,-57.875,3.45,-0.08,7.35,58.375,-18.75,341.938,-0.854126,0.489685,-0.11084,-0.13562
71.1875,-320.125,-57.8125,3.68,0.61,9.02,56.9375,-16.625,341,-0.860352,0.481262,-0.0861206,-0.143982
82.375,-317,-55.3125,2.71,2.48,12.24,54.1875,-12.375,339.125,-0.871643,0.46167,-0.038208,-0.160217
82.9375,-309.438,-51.25,0.51,3.65,12.42,53.0625,-10.25,338.25,-0.875977,0.451904,-0.0150757,-0.16803
77.0625,-301.75,-49.8125,0.27,4.62,12.99,52.0625,-8.125,337.5,-0.879517,0.442627,0.00744629,-0.174744
69.4375,-288.562,-56.0625,0.27,4.62,12.99,52.0625,-8.125,337.5,-0.879517,0.442627,0.00744629,-0.174744
62.125,-263.625,-69.875,0.84,5.7,14.12,51.25,-6,337,-0.882446,0.43396,0.0286865,-0.179382
59.0625,-234.75,-86.75,2.6,5.25,14.03,49.875,-1.875,336.875,-0.888184,0.416748,0.0666504,-0.18158
69.625,-207.5,-103.875,3.08,4.69,14.4,48.9375,0.125,337.188,-0.892273,0.405823,0.0831909,-0.179565
97.5,-184.625,-120.125,2.85,4.1,14.87,47.625,2.1875,337.75,-0.897461,0.392029,0.098877,-0.176392
134.375,-174.375,-133.625,2.85,4.1,14.87,47.625,2.1875,337.75,-0.897461,0.392029,0.098877,-0.176392
169.75,-173.125,-144.562,1.96,3.9,15.28,46,4.375,338.375,-0.903503,0.375244,0.114197,-0.172546
196,-177.062,-157.562,1.78,6.58,19.4,42.125,9.0625,339.875,-0.916382,0.335815,0.145508,-0.162231
205.625,-175.562,-171.688,2.19,7.68,21.27,40.1875,11.5,340.875,-0.921997,0.315796,0.161438,-0.155212
196.75,-173.25,-184.75,1.27,7.12,21.63,38.375,13.9375,342,-0.926758,0.296997,0.177185,-0.146729
177.875,-165.875,-195.875,1.27,7.12,21.63,38.375,13.9375,342,-0.926758,0.296997,0.177185,-0.146729
164.938,-147.812,-210.688,0.89,6.28,21.42,36.5625,16.3125,343.312,-0.930969,0.278992,0.191895,-0.136414
164.375,-122.75,-231,1.87,5.9,22.71,32.4375,20.6875,346.75,-0.939514,0.242065,0.21637,-0.108765
168.188,-96.25,-252.562,4.03,6.8,24.73,30.0625,22.625,348.875,-0.943787,0.223267,0.225952,-0.0917358
165.312,-70.9375,-270.812,4.69,6.98,24.91,27.6875,24.375,351.188,-0.94751,0.205322,0.233887,-0.0728149
151.25,-48.375,-284.438,4.69,6.98,24.91,27.6875,24.375,351.188,-0.94751,0.205322,0.233887,-0.0728149
131.312,-31.25,-293.688,4.9,6.7,24.44,25.25,25.9375,353.625,-0.950623,0.188721,0.240601,-0.0524292
115.188,-19.75,-303.062,5.07,7.07,25.14,20.3125,28.5,359.062,-0.954834,0.158142,0.251526,-0.00756836
103.875,-10.125,-316.625,5.53,7.61,25.79,17.75,29.5625,2.0625,-0.955872,0.143677,0.255615,0.0175781
90.125,2.5,-335,6.23,8.01,26,15.125,30.375,5.375,-0.956116,0.13031,0.258484,0.045105
68.9375,17.8125,-356.875,6.23,8.01,26,15.125,30.375,5.375,-0.956116,0.13031,0.258484,0.045105
41.875,32.5625,-379.75,7.2,8.32,25.89,12.5625,30.9375,8.9375,-0.955322,0.118469,0.260071,0.0751343
13.8125,47.6875,-401.875,10.84,8.26,23.96,7.6875,31.3125,17,-0.950256,0.0990601,0.258789,0.142395
-10.125,61.5,-422.125,12.16,8.09,23.41,5.375,31.0625,21.375,-0.945618,0.0908203,0.256104,0.17865
-28.4375,72.8125,-438.062,14.78,7.52,22.57,3.125,30.625,25.8125,-0.939636,0.083252,0.252197,0.215759
-42.4375,81.5,-446.938,14.78,7.52,22.57,3.125,30.625,25.8125,-0.939636,0.083252,0.252197,0.215759
-54,88.25,-446.75,15.77,7.04,22.01,1.125,29.9375,30.3125,-0.932312,0.076355,0.247131,0.252808
-64.25,93.6875,-437.688,16.91,5.72,20.83,-2.0625,28,38.9375,-0.91449,0.0650024,0.23407,0.323608
-73.0625,96.625,-419.75,16.85,4.65,20.3,-3.25,26.875,42.9375,-0.904663,0.0605469,0.226074,0.35614
-80.25,101.125,-396.625,16.62,4.2,20.02,-4.1875,25.5625,46.6875,-0.894531,0.0568237,0.217041,0.386597
-86.75,107.25,-372.188,16.62,4.2,20.02,-4.1875,25.5625,46.6875,-0.894531,0.0568237,0.217041,0.386597
-93.3125,114.188,-349.062,16.34,3.81,19.85,-4.8125,24.1875,50.25,-0.884338,0.0537109,0.20697,0.414978
-100.438,121.688,-328.875,15.65,2.72,18.9,-5.3125,21.25,56.75,-0.863708,0.0491943,0.183533,0.466797
-107.75,127.812,-311.875,15.35,2.2,18.38,-5.1875,19.75,59.75,-0.853149,0.0477295,0.170593,0.490601
-114.875,131.125,-297.25,15,1.6,17.9,-4.9375,18.1875,62.6875,-0.842468,0.046936,0.157288,0.513184
-120.75,130.75,-284.625,15,1.6,17.9,-4.9375,18.1875,62.6875,-0.842468,0.046936,0.157288,0.513184
-126.312,127.188,-274.125,14.66,1.1,17.52,-4.5,16.75,65.4375,-0.831421,0.0467529,0.143799,0.534668
-132.5,121.438,-265.688,14.26,-0.08,16.87,-3.25,14.125,70.8125,-0.808411,0.0488281,0.116577,0.574951
-141.5,115.938,-258.312,14.39,-0.45,16.7,-2.3125,12.9375,73.375,-0.796387,0.0513916,0.102417,0.593811
-153.688,112.438,-250.438,14.36,-1.15,16.02,-1.1875,11.8125,75.875,-0.784302,0.0551147,0.0875854,0.611694
-168.625,110,-240.188,14.36,-1.15,16.02,-1.1875,11.8125,75.875,-0.784302,0.0551147,0.0875854,0.611694
-183.938,108.625,-227.938,14.3,-1.49,15.52,0.125,10.6875,78.25,-0.772217,0.0599365,0.0718994,0.628418
-198.312,110.438,-215.25,14.52,-1.95,14.42,3.375,8.6875,82.6875,-0.74823,0.0720825,0.0375366,0.658447
-211.438,114.5,-203.062,15.28,-2.46,13.02,5.25,7.625,84.6875,-0.736389,0.0789185,0.0185547,0.671692
-224.188,120.625,-190.375,15.28,-2.69,12.07,7.3125,6.625,86.625,-0.724731,0.0861816,-0.00158691,0.683655
-236.812,126.5,-176.625,15.83,-2.69,12.07,7.3125,6.625,86.625,-0.724731,0.0861816,-0.00158691,0.683655
-248.125,130.812,-159.188,16.38,-2.92,11.02,9.5625,5.5625,88.375,-0.71344,0.09375,-0.0227051,0.694031
-256.25,133.125,-137.688,16.66,-3.65,8.2,14.3125,3.5625,91.25,-0.693176,0.109619,-0.0670166,0.709229
-260.625,132.438,-112.312,17.06,-3.82,7.52,16.75,2.5625,92.3125,-0.684753,0.117615,-0.0895386,0.713623
-261.938,130.312,-84.375,16.95,-3.9,6.89,19.25,1.5625,93.125,-0.677612,0.125427,-0.112061,0.715881
-261.25,127.25,-55.25,16.67,-3.9,6.89,19.25,1.5625,93.125,-0.677612,0.125427,-0.112061,0.715881
-259.75,122.875,-26.4375,16.23,-3.91,6.32,21.75,0.5625,93.625,-0.671936,0.133057,-0.13446,0.716064
-259.062,117.875,-0.0625,15.3,-3.37,4.77,26.8125,-1.5625,93.8125,-0.664124,0.14801,-0.179077,0.710632
-259.188,113.688,23.5,14.91,-3.12,4.32,29.3125,-2.6875,93.625,-0.661682,0.155273,-0.201355,0.705383
-260.312,110.438,44.3125,14.53,-2.59,3,31.875,-3.875,93.25,-0.659973,0.162415,-0.223694,0.698547
-261.75,106.188,63.125,13.37,-2.59,3,31.875,-3.875,93.25,-0.659973,0.162415,-0.223694,0.698547
-262.938,99.25,80,12.64,-2.19,2.2,34.375,-5.125,92.625,-0.658997,0.169678,-0.245728,0.690308
-262.25,89.375,93.125,11.99,-1.45,0.5,39.375,-7.5625,90.9375,-0.658691,0.18457,-0.287964,0.670227
-258.438,79.0625,102,11.61,-0.88,-0.69,41.75,-8.75,89.9375,-0.659119,0.191956,-0.307556,0.658936
-250.75,67.5625,109.062,11.21,-0.81,-1.26,44,-9.875,88.8125,-0.660095,0.199158,-0.325806,0.646912
-240.375,55.3125,116.688,10.93,-0.81,-1.26,44,-9.875,88.8125,-0.660095,0.199158,-0.325806,0.646912
-227.625,42.6875,127.438,10.51,-0.78,-1.68,46.0625,-11.0625,87.5,-0.661865,0.205994,-0.342712,0.634094
-212.75,28.9375,140.75,10.04,-0.42,-1.96,49.6875,-13.5,84.3125,-0.668823,0.217712,-0.371826,0.605835
-196,13.875,155.875,8.81,-0.15,-1.7,51.125,-14.75,82.375,-0.674194,0.222534,-0.384033,0.590332
-179.688,-1.5625,171.562,8.03,0.07,-1.51,52.4375,-16.0625,80.25,-0.680725,0.226746,-0.394653,0.573975
-165.875,-17.5,185.25,7.21,0.07,-1.51,52.4375,-16.0625,80.25,-0.680725,0.226746,-0.394653,0.573975
-155.625,-32,196.188,6.39,0.33,-1.24,53.5,-17.375,77.9375,-0.688171,0.230652,-0.404053,0.556763
-148.75,-45.625,204.062,4.76,0.79,-0.74,55.25,-20.0625,72.8125,-0.704773,0.238342,-0.419434,0.520203
-144.812,-58.5,208.562,3.95,0.97,-0.64,56,-21.3125,70.125,-0.713379,0.242493,-0.425659,0.501099
-143.5,-70.4375,209.5,3.21,1.18,-0.51,56.6875,-22.5625,67.375,-0.721924,0.247131,-0.43103,0.481628
-144.375,-81.625,207.312,2.57,1.18,-0.51,56.6875,-22.5625,67.375,-0.721924,0.247131,-0.43103,0.481628
-146.688,-92,203.438,1.26,1.81,-0.52,57.375,-23.75,64.5625,-0.730347,0.252319,-0.435486,0.461853
-150.25,-100.875,196.562,0.65,2.15,-1.37,58.5625,-25.8125,59,-0.745789,0.264893,-0.442078,0.422119
-152.812,-109.188,186.188,0.09,2,-2.52,59.125,-26.625,56.3125,-0.752686,0.272095,-0.443909,0.402954
-152.188,-116.188,172,-0.47,1.79,-3.1,59.6875,-27.3125,53.75,-0.759033,0.279846,-0.444519,0.384705
-146.938,-123.312,154,-0.52,1.79,-3.1,59.6875,-27.3125,53.75,-0.759033,0.279846,-0.444519,0.384705
-135.562,-133.25,135.438,-0.47,1.51,-3.44,60.0625,-27.8125,51.3125,-0.765076,0.28772,-0.443481,0.367737
-118,-146.188,117.75,-0.39,0.68,-3.2,60.1875,-28.1875,46.9375,-0.777649,0.302551,-0.435425,0.33783
-95.4375,-159,101.812,0.08,0.54,-2.71,59.875,-28.125,45,-0.784546,0.308594,-0.428467,0.325073
-69.4375,-170.062,89.125,0.21,0.46,-1.98,59.25,-27.875,43.125,-0.792114,0.313477,-0.419678,0.313293
-43.25,-181.938,81.6875,0.32,0.46,-1.98,59.25,-27.875,43.125,-0.792114,0.313477,-0.419678,0.313293
-19.1875,-195.25,78.6875,0.33,0.47,-1.1,58.375,-27.5625,41.3125,-0.800476,0.317078,-0.409119,0.302124
1.3125,-207.062,77.5625,-0.3,0.42,1.75,56,-26.625,37.8125,-0.818909,0.321045,-0.383972,0.280884
17.4375,-214.375,75.375,-0.9,0.51,2.85,54.6875,-26,36.25,-0.828125,0.321838,-0.370239,0.271179
28.625,-214.688,69.375,-1.33,0.77,3.72,53.4375,-25.3125,34.8125,-0.83667,0.322388,-0.356689,0.262329
32.4375,-206.062,59.9375,-1.59,0.77,3.72,53.4375,-25.3125,34.8125,-0.83667,0.322388,-0.356689,0.262329
30,-194,51,-2.4,1.53,4.62,52.3125,-24.5625,33.5,-0.84436,0.322937,-0.343628,0.254333
25.625,-182.812,43.5,-2.44,2.48,4.81,50.4375,-23,31.25,-0.857483,0.324585,-0.318909,0.240112
24.875,-177.062,37.125,-2.44,2.64,5.08,49.4375,-22.125,30.1875,-0.863892,0.32489,-0.30603,0.233459
32.4375,-181.375,34.8125,-3.14,2.57,5.54,48.3125,-21.1875,29.25,-0.870667,0.323914,-0.292236,0.227295
51.9375,-186.75,32,-2.99,2.57,5.54,48.3125,-21.1875,29.25,-0.870667,0.323914,-0.292236,0.227295
80.5625,-182.312,21.125,-2.34,2.68,6.41,47,-20.125,28.4375,-0.877625,0.320923,-0.277771,0.222717
110.5,-171.25,4.375,-1.35,3.62,9.7,43.875,-17.8125,27.625,-0.891541,0.309143,-0.247803,0.219482
133.312,-167.438,-9.8125,-0.02,3.91,10.39,42.125,-16.4375,27.3125,-0.898743,0.301636,-0.23114,0.21875
146.312,-180,-12.1875,-0.72,4.53,11.11,40.25,-14.9375,26.875,-0.906372,0.293762,-0.212646,0.216797
154.188,-204.25,-4.0625,-2.15,4.53,11.11,40.25,-14.9375,26.875,-0.906372,0.293762,-0.212646,0.216797
164.375,-226.812,-3.875,-3.77,5.44,11.82,38.3125,-13.1875,26.375,-0.914185,0.285278,-0.192139,0.214355
164.375,-226.812,-3.875,-4.86,7.83,14.51,34.625,-9.6875,25.625,-0.927673,0.2677,-0.151794,0.211304
166.625,-206.812,-25.6875,-3.68,7.99,14.81,32.9375,-7.9375,25.8125,-0.932434,0.258362,-0.13385,0.214111
168,-173.438,-59,-1.38,7.7,14.93,31.1875,-6.3125,26.5625,-0.935974,0.247437,-0.117676,0.221008
183.188,-135.188,-99.0625,0.76,7.7,14.93,31.1875,-6.3125,26.5625,-0.935974,0.247437,-0.117676,0.221008
201.625,-145.125,-91.6875,2.14,6.5,16.11,29.25,-4.6875,27.125,-0.939697,0.235046,-0.100464,0.227173
222.25,-161.5,-81.8125,0.63,6.42,17.24,24.8125,-1.0625,28.125,-0.947266,0.206177,-0.0617065,0.237305
236.812,-173.062,-84.375,-1.27,7.96,18.38,22.5,0.8125,28.75,-0.94989,0.190918,-0.0415039,0.243896
239.375,-169.5,-104.375,-3.84,8.59,18.59,20.25,2.6875,29.8125,-0.950928,0.17627,-0.0222778,0.253357
227.125,-153.25,-139.688,-3.87,8.59,18.59,20.25,2.6875,29.8125,-0.950928,0.17627,-0.0222778,0.253357
204.188,-135.5,-179.5,-3.26,9.02,18.53,18.1875,4.5,31.25,-0.950073,0.163025,-0.0043335,0.266052
177.188,-117.812,-217.375,-1.92,9.53,17.45,14.625,7.8125,35.3125,-0.942932,0.141296,0.0271606,0.300232
154.438,-102.688,-249.625,2.11,9.44,17.05,12.875,9.3125,37.75,-0.937073,0.131653,0.0413818,0.320618
142.25,-92.5,-275.312,3.92,9.15,16.55,11.0625,10.75,40.375,-0.929993,0.121948,0.055603,0.342346
139.688,-90.6875,-294.875,5.72,9.15,16.55,11.0625,10.75,40.375,-0.929993,0.121948,0.055603,0.342346
142.812,-95.1875,-307.438,7.02,8.71,15.95,9.125,12.1875,43.125,-0.921692,0.112,0.0703735,0.364685
148.125,-102.125,-315.75,8.56,8.38,14.9,4.75,14.9375,48.8125,-0.901978,0.0911255,0.101868,0.409668
152.375,-108.188,-320.062,9,8.9,15.29,2.4375,16.25,51.6875,-0.890564,0.0805054,0.118103,0.431824
152.625,-112.188,-322.125,9.12,9.51,15.83,0.125,17.375,54.625,-0.878174,0.0704956,0.134033,0.453735
144.688,-113.375,-323.875,9.3,9.51,15.83,0.125,17.375,54.625,-0.878174,0.0704956,0.134033,0.453735
130.938,-111.125,-326.375,9.54,11.04,16.42,-2.125,18.4375,57.5625,-0.864746,0.0613403,0.14917,0.475586
116.188,-106.438,-331.875,9.37,12.18,16.17,-6.5625,19.9375,63.8125,-0.834534,0.0449829,0.176453,0.52002
103.812,-102.25,-343.125,9.26,12.86,16.02,-8.8125,20.375,67.1875,-0.8172,0.0372314,0.188782,0.543274
95.0625,-97.8125,-359.312,9.9,12.99,16.13,-11.125,20.625,70.75,-0.798218,0.0291748,0.2005,0.567261
91,-93.5,-377.5,10.53,12.99,16.13,-11.125,20.625,70.75,-0.798218,0.0291748,0.2005,0.567261
89.625,-91.25,-394.312,11.18,12.92,16.23,-13.4375,20.6875,74.5,-0.777527,0.020813,0.211792,0.591736
88.4375,-89.375,-406.5,11.84,12.76,16.91,-18.1875,20.1875,82.375,-0.731689,0.00366211,0.232849,0.640625
83.8125,-87.6875,-414.125,13.14,12.68,17.23,-20.375,19.625,86.4375,-0.707031,-0.00445557,0.242004,0.664429
72.6875,-84.8125,-415.75,13.68,12.54,17.26,-22.25,18.875,90.4375,-0.681824,-0.0116577,0.249634,0.6875
55.5,-80.125,-412.062,14.09,12.54,17.26,-22.25,18.875,90.4375,-0.681824,-0.0116577,0.249634,0.6875
36.875,-73.6875,-404.75,14.26,12.27,16.94,-23.9375,18,94.4375,-0.656311,-0.0180664,0.255432,0.709717
19.5625,-67.125,-395.562,14.05,11.32,15.38,-26.4375,15.875,102.25,-0.605286,-0.0286255,0.262207,0.751038
5.0625,-60.3125,-386,13.8,11.05,14.82,-27.3125,14.6875,106,-0.579895,-0.0333252,0.263428,0.770203
-6.1875,-52.5625,-377.125,13.68,10.8,14.38,-28,13.4375,109.688,-0.554688,-0.0378418,0.26355,0.78833
-14.5,-45.3125,-368.625,13.7,10.8,14.38,-28,13.4375,109.688,-0.554688,-0.0378418,0.26355,0.78833
-20.375,-37.5625,-358.062,14.12,9.95,13.95,-28.5625,12.125,113.312,-0.529846,-0.0422974,0.262695,0.805298
-25,-30.25,-344.938,14.14,8.69,13.08,-29.1875,9.375,120,-0.482117,-0.0511475,0.258667,0.83551
-28.125,-24,-329.562,14.14,7.79,12.32,-29.3125,8.0625,123.125,-0.459595,-0.0553589,0.255859,0.848694
-30.6875,-19,-312.938,13.99,7.4,12.03,-29.3125,6.8125,126,-0.438232,-0.0593262,0.252502,0.860657
-34.1875,-14.4375,-293.875,13.92,7.4,12.03,-29.3125,6.8125,126,-0.438232,-0.0593262,0.252502,0.860657
-38.625,-9.625,-273.25,13.69,7.03,11.64,-29.1875,5.625,128.688,-0.418213,-0.0629883,0.248596,0.871399
-42.625,-5.5625,-252.75,13.28,5.85,9.95,-28.6875,3.375,133.438,-0.382385,-0.069519,0.239685,0.889648
-44.1875,-2.375,-233.25,12.21,5.49,9.47,-28.375,2.375,135.562,-0.366272,-0.0725098,0.235168,0.8974
-42.75,0.4375,-217.25,11.68,5.13,9.2,-28.0625,1.4375,137.562,-0.351013,-0.0755615,0.230774,0.904358
-39.375,2.9375,-204.438,11.26,5.13,9.2,-28.0625,1.4375,137.562,-0.351013,-0.0755615,0.230774,0.904358
-36.0625,5.125,-193.375,10.9,4.84,9.01,-27.75,0.5,139.375,-0.336548,-0.0786743,0.226624,0.910583
-33.625,7.375,-183.062,10.3,3.64,8.19,-27.0625,-1.1875,142.812,-0.309692,-0.0848389,0.218689,0.921448
-31.6875,8.75,-173.188,10.11,3.09,7.87,-26.75,-1.9375,144.375,-0.297424,-0.0877686,0.214905,0.926086
-29.6875,9.25,-162.438,9.89,2.56,7.53,-26.4375,-2.6875,145.812,-0.285889,-0.0903931,0.211426,0.930237
-27.5625,7.5,-151.062,9.58,2.56,7.53,-26.4375,-2.6875,145.812,-0.285889,-0.0903931,0.211426,0.930237
-26.1875,5.1875,-139.312,8.89,1.54,7.32,-26.125,-3.3125,147.125,-0.275269,-0.0926514,0.208191,0.93396
-26.625,2.625,-127.812,8.44,0.85,7.33,-25.4375,-4.375,149.5,-0.256348,-0.0959473,0.201721,0.94043
-29.125,0.75,-117.438,7.96,0.24,7.06,-25,-4.8125,150.5,-0.247925,-0.0970459,0.19812,0.943298
-33.8125,0.1875,-109.125,6.88,0.02,6.82,-24.5625,-5.25,151.5,-0.23999,-0.0980225,0.194092,0.946106
-39.5625,1.3125,-103.562,6.33,0.02,6.82,-24.5625,-5.25,151.5,-0.23999,-0.0980225,0.194092,0.946106
-45.625,3.8125,-100.938,5.88,-0.13,6.53,-24.0625,-5.6875,152.438,-0.232361,-0.0990601,0.189514,0.948853
-51.5,7,-100.625,5.62,-0.78,5.57,-22.8125,-6.625,154.312,-0.217346,-0.101501,0.178833,0.954224
-56.125,9.1875,-101,5.61,-1.02,5.36,-22.125,-7.0625,155.25,-0.2099,-0.1026,0.173035,0.956787
-59.25,9,-100.062,5.66,-1.21,5.18,-21.4375,-7.5,156.125,-0.202637,-0.103455,0.167114,0.959351
-61.375,6.3125,-97.0625,5.7,-1.21,5.18,-21.4375,-7.5,156.125,-0.202637,-0.103455,0.167114,0.959351
-62.625,1.5,-93.1875,5.71,-1.35,5.07,-20.6875,-7.8125,157,-0.195679,-0.103821,0.161194,0.961731
-63.5625,-2.4375,-88.6875,5.45,-1.58,4.6,-19.25,-8.3125,158.562,-0.182495,-0.103333,0.149414,0.966309
-64.4375,-6.125,-85.3125,5.36,-1.61,4.44,-18.5,-8.5,159.312,-0.176208,-0.1026,0.143433,0.968445
-66.0625,-9.25,-82.4375,5.31,-1.65,4.21,-17.6875,-8.625,160.062,-0.170105,-0.101562,0.13739,0.97052
-67.5625,-12.3125,-79.8125,5.32,-1.65,4.21,-17.6875,-8.625,160.062,-0.170105,-0.101562,0.13739,0.97052
-69,-15.625,-76.5625,5.47,-1.65,3.73,-16.9375,-8.6875,160.812,-0.164246,-0.100159,0.131287,0.972473
-69.375,-18.3125,-72.75,5.48,-1.51,3.22,-15.375,-8.6875,162.125,-0.15332,-0.0966187,0.119202,0.976196
-68.875,-20.4375,-69,5.51,-1.32,3.11,-14.625,-8.6875,162.75,-0.148193,-0.0946045,0.113403,0.977844
-67.5625,-22.1875,-65.625,5.62,-0.9,2.9,-13.875,-8.625,163.312,-0.143372,-0.0924072,0.107788,0.979431
-65.375,-23.75,-62,6.08,-0.9,2.9,-13.875,-8.625,163.312,-0.143372,-0.0924072,0.107788,0.979431
-62,-26.4375,-57.625,6.43,-0.79,2.73,-13.1875,-8.5,163.875,-0.138855,-0.0899658,0.102539,0.980896
-57.0625,-30.1875,-51.6875,6.82,-0.61,2.37,-12,-8.0625,164.75,-0.131226,-0.0841675,0.093689,0.983337
-49.875,-34.375,-43.4375,7.67,-0.49,2.44,-11.5625,-7.75,165.125,-0.128418,-0.0807495,0.0905151,0.984253
-40.625,-39.125,-33.3125,7.99,-0.39,2.61,-11.25,-7.375,165.312,-0.126465,-0.0769653,0.0883789,0.985046
-29.625,-43.1875,-22.125,8.23,-0.39,2.61,-11.25,-7.375,165.312,-0.126465,-0.0769653,0.0883789,0.985046
-17.875,-46.3125,-11,8.49,-0.23,2.77,-11,-7,165.5,-0.125305,-0.072998,0.0872803,0.985596
-6.375,-49.9375,0.4375,9.26,0.05,3.69,-11,-6,165.438,-0.12561,-0.0643921,0.0882568,0.986023
4.4375,-52.5,12.8125,9.72,0.19,4.04,-11.125,-5.4375,165.25,-0.12738,-0.0598145,0.0901489,0.985962
13.625,-54.375,26.875,10.02,0.43,4.48,-11.375,-4.8125,164.875,-0.130371,-0.0550537,0.0927124,0.985596
21.1875,-56,42.5,10.4,0.43,4.48,-11.375,-4.8125,164.875,-0.130371,-0.0550537,0.0927124,0.985596
26.375,-56.3125,59.25,10.82,1.03,5.2,-11.6875,-4.125,164.375,-0.134766,-0.0501709,0.0958252,0.984985
30.4375,-55.8125,76.0625,10.96,1.46,5.77,-12.375,-2.75,162.875,-0.147522,-0.0403442,0.103149,0.982849
34.1875,-54.3125,91.3125,11.03,2.36,5.95,-12.8125,-2.0625,161.938,-0.155579,-0.0355225,0.107422,0.981323
39.25,-53.0625,104.25,11.11,3.13,6.43,-13.25,-1.3125,160.938,-0.16449,-0.0307617,0.112244,0.979492
46,-52.5,114.938,11.62,3.13,6.43,-13.25,-1.3125,160.938,-0.16449,-0.0307617,0.112244,0.979492
54.0625,-53.6875,124.75,11.83,3.39,6.56,-13.8125,-0.5,159.75,-0.174133,-0.0258789,0.117798,0.977295
63.1875,-57.625,134.125,11.99,3.64,6.88,-15.125,1.25,157.25,-0.195496,-0.0151367,0.131348,0.971741
72.8125,-63.25,143.5,12.39,3.68,7.3,-15.875,2.25,155.812,-0.207214,-0.0090332,0.139404,0.968262
82.125,-69.5,153.938,12.72,3.73,7.77,-16.6875,3.4375,154.312,-0.219849,-0.00250244,0.148315,0.964172
90.9375,-75.375,166.375,13.08,3.73,7.77,-16.6875,3.4375,154.312,-0.219849,-0.00250244,0.148315,0.964172
98.0625,-79.375,182,13.42,3.85,8.37,-17.5,4.6875,152.625,-0.233582,0.00439453,0.157776,0.959412
102.312,-81.625,201,13.94,4.48,9.8,-19.125,7.4375,148.625,-0.265564,0.019165,0.177307,0.947449
103.312,-80.5,222.25,14.15,5.47,11.1,-19.875,8.9375,146.312,-0.284119,0.0264893,0.186707,0.940063
102.125,-74.5625,244.375,14.41,5.47,11.53,-20.4375,10.4375,143.75,-0.304443,0.0333862,0.195618,0.931641
101.062,-64.4375,266.75,14.61,5.95,11.53,-20.4375,10.4375,143.75,-0.304443,0.0333862,0.195618,0.931641
102.5,-51.5,288.312,15.14,6.46,11.71,-21,11.875,141,-0.326416,0.0395508,0.204163,0.922058
106.938,-37.875,310.562,15.58,6.68,12.01,-21.75,14.6875,134.562,-0.375793,0.0494385,0.220398,0.898743
111.812,-24.5,335.188,16.11,7.05,13.26,-21.9375,16.125,130.938,-0.403381,0.0535278,0.227722,0.884583
113.375,-12.3125,363.062,16.65,7.57,14.45,-21.9375,17.5625,127,-0.432922,0.057312,0.233948,0.868652
108.312,-0.125,392.312,17.03,9.04,14.45,-21.9375,17.5625,127,-0.432922,0.057312,0.233948,0.868652
97.75,12,420.438,16.96,9.93,14.83,-21.625,18.9375,122.75,-0.464172,0.0611572,0.238464,0.85083
83.875,24.625,443.688,16.84,10.86,15.14,-20,21.5625,113.562,-0.529846,0.0689087,0.241638,0.810059
68.6875,36.4375,462.375,16.71,12.68,15.85,-18.6875,22.625,108.812,-0.563232,0.072937,0.240295,0.787231
53.6875,46.3125,476.312,16.65,13.45,16,-17.125,23.5625,103.938,-0.596252,0.0772095,0.237183,0.763062
40.0625,54.0625,484,16.57,14.11,16,-17.125,23.5625,103.938,-0.596252,0.0772095,0.237183,0.763062
29.3125,60.25,485.25,16.5,14.57,16.07,-15.3125,24.3125,99.125,-0.628357,0.0814819,0.232666,0.737793
22.625,64.5,482.25,16.81,14.8,16.03,-11.375,25.25,89.625,-0.688843,0.0895996,0.220886,0.684631
19.1875,68.1875,476.938,17.19,14.72,16.36,-9.375,25.375,84.9375,-0.71698,0.0932007,0.213928,0.656921
16.75,71.9375,471.375,17.57,14.66,16.56,-7.3125,25.3125,80.375,-0.743835,0.0966187,0.206177,0.628357
12.5,75.75,468.562,17.87,14.65,16.56,-7.3125,25.3125,80.375,-0.743835,0.0966187,0.206177,0.628357
4.875,80.625,468.938,17.85,14.85,16.61,-5.1875,25.0625,75.75,-0.769531,0.100098,0.197388,0.598999
-6.25,87.125,470.688,17.53,14.99,16.42,-0.75,23.75,66.625,-0.817444,0.107971,0.175659,0.537781
-19.1875,95.0625,472.125,17.04,15.08,15.63,1.4375,22.75,62.1875,-0.839417,0.112366,0.162659,0.506287
-32.0625,102.75,470.812,16.44,15.03,14.3,3.6875,21.5,57.75,-0.859741,0.117126,0.148621,0.474426
-42.6875,108.125,466.938,14.83,14.66,14.3,3.6875,21.5,57.75,-0.859741,0.117126,0.148621,0.474426
-49.3125,112,459,13.91,14.25,13.56,5.8125,20,53.4375,-0.878357,0.121887,0.13385,0.442444
-51.625,116,445.438,13.08,13.7,12.35,9.5,16.625,45.3125,-0.909973,0.13031,0.103149,0.379944
-52.1875,119.375,428.75,12.4,13.16,11.61,11.0625,14.75,41.5,-0.922974,0.133972,0.0875854,0.349976
-53,121.062,410.438,11.32,12.09,11.38,12.4375,12.8125,37.875,-0.934265,0.137512,0.0719604,0.320984
-54.875,122.062,392.062,10.81,11.53,11.38,12.4375,12.8125,37.875,-0.934265,0.137512,0.0719604,0.320984
-59,124,374.688,10.22,10.96,11.13,13.6875,10.875,34.4375,-0.94397,0.140991,0.0562134,0.293091
-65.625,126.375,357.812,9.05,10.08,10.05,16,6.75,28.125,-0.958862,0.148804,0.0240479,0.24054
-73.25,128.875,340.312,8.57,9.76,9.61,17,4.625,25.25,-0.964233,0.15332,0.00769043,0.216064
-81.5,131.125,323.25,8.05,9.44,9.08,18.0625,2.5,22.5,-0.968323,0.158264,-0.00866699,0.19281
-88.6875,132.125,306.375,7.55,9.05,9.08,18.0625,2.5,22.5,-0.968323,0.158264,-0.00866699,0.19281
-94.3125,131.25,289.312,6.63,8.38,7.86,19,0.4375,19.9375,-0.971313,0.163574,-0.0247803,0.170776
-97.3125,128,272.5,6.29,8.21,7.4,20.8125,-3.5625,15.1875,-0.974426,0.174683,-0.0554199,0.130127
-98.4375,122.375,257.188,5.88,8.05,6.39,21.625,-5.4375,13,-0.974792,0.180298,-0.069458,0.11145
-97.625,114.188,241.938,5.39,7.81,5.5,22.3125,-7.1875,10.9375,-0.974609,0.18573,-0.0825195,0.09375
-95.3125,105.812,226.875,4.18,7.3,5.5,22.3125,-7.1875,10.9375,-0.974609,0.18573,-0.0825195,0.09375
-92.75,99.4375,211.375,3.62,7.05,5.05,23,-8.875,9.0625,-0.973938,0.191101,-0.0947266,0.0772705
-90.625,92.75,196.5,3.16,6.9,4.68,24.3125,-11.9375,5.5625,-0.971313,0.201599,-0.116638,0.0474854
-90.25,86.4375,182.5,2.63,6.85,3.69,24.875,-13.375,4,-0.969482,0.207031,-0.126587,0.0341797
-90.9375,81.875,168.562,1.69,6.74,3.22,25.5,-14.6875,2.5625,-0.967346,0.212646,-0.136047,0.0218506
-91.5,79,155.438,1.24,6.64,3.22,25.5,-14.6875,2.5625,-0.967346,0.212646,-0.136047,0.0218506
-90.625,76.125,143.562,0.84,6.53,2.77,26.125,-15.9375,1.1875,-0.965027,0.218201,-0.14502,0.010437
-88.625,72.25,133.125,0,6.4,1.84,27.3125,-18.25,358.75,-0.9599,0.229065,-0.161194,-0.0100708
-85.375,67.0625,123.625,-0.6,6.39,0.85,27.875,-19.3125,357.688,-0.957397,0.234009,-0.168274,-0.019165
-79.6875,61.25,113.062,-1.2,6.34,0.44,28.375,-20.25,356.688,-0.954956,0.238403,-0.1745,-0.0272827
-71.5,53.875,101.25,-1.61,6.28,0.44,28.375,-20.25,356.688,-0.954956,0.238403,-0.1745,-0.0272827
-60.4375,44.375,88.0625,-1.98,6.27,-0.16,28.75,-21,355.812,-0.95282,0.242065,-0.179688,-0.0343628
-46.875,33.4375,74.5,-2.18,6.21,-0.43,29.125,-22.125,354.5,-0.94989,0.246521,-0.186646,-0.0454102
-32.25,21.0625,61.5625,-2.26,6.12,-0.53,29.125,-22.4375,354,-0.949219,0.247131,-0.188232,-0.0494995
-16.875,7.75,49.4375,-2.26,6.03,-0.19,29,-22.5625,353.625,-0.949097,0.246643,-0.188721,-0.0527344
-2.125,-3.9375,39.0625,-2.28,5.98,-0.19,29,-22.5625,353.625,-0.949097,0.246643,-0.188721,-0.0527344
10.625,-15.3125,30,-2.41,6.01,0.05,28.75,-22.5625,353.312,-0.949402,0.245239,-0.18811,-0.0552979
20.6875,-25.25,21.3125,-2.56,6.01,0.24,28.0625,-22.1875,352.938,-0.951233,0.240479,-0.184265,-0.0584106
28.6875,-34.5625,12,-2.62,6,0.88,27.625,-21.875,352.875,-0.952576,0.237427,-0.18103,-0.0588379
35.3125,-42.75,1.4375,-2.57,5.97,1.14,27.1875,-21.375,352.938,-0.954224,0.233948,-0.177063,-0.0584106
42.1875,-49.3125,-10.25,-2.48,5.94,1.14,27.1875,-21.375,352.938,-0.954224,0.233948,-0.177063,-0.0584106
49.6875,-54.375,-22.8125,-2.3,5.89,1.35,26.6875,-20.8125,353.188,-0.956116,0.22998,-0.172424,-0.0568848
57.5625,-58.5625,-34.6875,-1.66,5.78,1.72,25.5625,-19.4375,353.875,-0.96051,0.220581,-0.161743,-0.0509033
65.6875,-61.875,-45.875,-1.31,5.8,2.25,24.9375,-18.625,354.438,-0.962952,0.215088,-0.155701,-0.0465698
73.875,-65.0625,-56.1875,-0.92,5.86,2.66,24.25,-17.75,355.062,-0.965576,0.208984,-0.149231,-0.0413818
81.625,-68.8125,-65.375,-0.5,5.88,2.66,24.25,-17.75,355.062,-0.965576,0.208984,-0.149231,-0.0413818
88.6875,-72.375,-74,0.28,6.11,3.32,23.5,-16.8125,355.75,-0.968262,0.202454,-0.142334,-0.0355225
95.375,-76.625,-81.875,0.7,6.23,3.68,21.875,-14.75,357.375,-0.973694,0.187866,-0.126953,-0.0217896
101.375,-81.75,-89.8125,1.16,6.39,4.61,20.9375,-13.625,358.312,-0.97644,0.179932,-0.118469,-0.0139771
107,-86.8125,-97.8125,1.6,6.63,5.73,20,-12.4375,359.312,-0.979065,0.171631,-0.109375,-0.0055542
111.625,-92.3125,-105.938,2.64,7.33,5.73,20,-12.4375,359.312,-0.979065,0.171631,-0.109375,-0.0055542
114.812,-99.3125,-114.062,3.16,7.8,6.32,19.0625,-11.1875,0.375,-0.981567,0.163147,-0.0995483,0.00354004
117.062,-107.125,-122.875,3.79,8.27,6.97,17.0625,-8.375,2.6875,-0.986023,0.145691,-0.0774536,0.0236206
118.688,-115.562,-132.625,4.44,8.69,8.47,16.0625,-6.8125,4,-0.987854,0.13678,-0.0650635,0.03479
121.312,-124.562,-143.125,5.87,9.32,8.93,14.9375,-5.125,5.375,-0.98938,0.127502,-0.0516357,0.046875
126,-134.375,-154.812,6.58,9.6,8.93,14.9375,-5.125,5.375,-0.98938,0.127502,-0.0516357,0.046875
133.188,-146.5,-168.062,7.27,9.81,9.39,13.75,-3.375,6.875,-0.99054,0.117615,-0.0370483,0.0598755
141.75,-160.375,-182.375,8.78,9.95,10.45,10.9375,0.5,10.25,-0.991394,0.0958862,-0.00372314,0.0891724
151,-175.25,-197.438,9.45,10.08,11.89,9.375,2.6875,12.125,-0.990723,0.0840454,0.0150146,0.105469
158.688,-188.688,-212.625,9.99,10.21,12.67,7.6875,4.9375,14.125,-0.989197,0.0718994,0.034729,0.122803
162.688,-198.875,-227.188,10.55,10.49,12.67,7.6875,4.9375,14.125,-0.989197,0.0718994,0.034729,0.122803
161.875,-204.688,-241.062,11.68,11.36,14.09,5.875,7.1875,16.25,-0.986633,0.0597534,0.0549316,0.141174
156.312,-207.125,-254.125,12.17,11.78,14.47,2.125,11.5,20.9375,-0.978149,0.0367432,0.0956421,0.180786
148.75,-207.75,-267.125,12.71,12.07,14.3,0.1875,13.625,23.4375,-0.972168,0.0258179,0.115906,0.202026
143.312,-208.875,-280.562,13.2,12.28,13.78,-1.875,15.5625,26.125,-0.964844,0.0147705,0.136108,0.224243
143,-210.062,-294,14.06,12.37,13.78,-1.875,15.5625,26.125,-0.964844,0.0147705,0.136108,0.224243
147.625,-212.812,-306.875,14.54,12.38,13.87,-4.25,17.5,28.9375,-0.956238,0.00323486,0.156555,0.247131
154.312,-216.125,-319.062,15.04,12.4,14.22,-9.625,20.875,34.9375,-0.934692,-0.0214844,0.197937,0.294434
158.312,-218.25,-327.75,15.63,12.52,15.51,-12.5625,22.3125,38.0625,-0.921936,-0.0341187,0.218262,0.318237
158.312,-217,-333,16.45,12.91,15.72,-15.625,23.5625,41.25,-0.907959,-0.0467529,0.237793,0.341919
156.375,-211.562,-335.562,16.64,13.06,15.72,-15.625,23.5625,41.25,-0.907959,-0.0467529,0.237793,0.341919
153.75,-201.5,-336.062,16.88,13.13,15.91,-18.75,24.4375,44.4375,-0.893005,-0.0594482,0.256226,0.365173
152.375,-187.125,-334.75,17.46,13.2,16.14,-25.125,25.25,47.6875,-0.861145,-0.0858154,0.288513,0.409668
153.25,-168.875,-331.75,17.63,13.1,15.86,-28.25,25.0625,54,-0.844604,-0.0999146,0.302246,0.430481
155.75,-149.375,-326.625,17.58,12.88,15.56,-31.3125,24.625,57.0625,-0.82782,-0.114685,0.314575,0.450195
160.125,-131.25,-321.125,17.59,12.51,15.56,-31.3125,24.625,57.0625,-0.82782,-0.114685,0.314575,0.450195
165,-113.5,-314.938,17.79,11.8,15.1,-34.375,23.9375,60,-0.810791,-0.130188,0.325562,0.468689
169.625,-97.5,-306.375,17.87,11.3,14.81,-40.125,21.8125,62.9375,-0.776733,-0.162781,0.344421,0.501526
173.812,-84.375,-295.062,17.89,10.72,14.25,-42.8125,20.5625,68.25,-0.759949,-0.179321,0.352783,0.515625
176.625,-74.25,-280.812,17.72,10.06,13.82,-45.3125,19.1875,70.75,-0.743469,-0.195679,0.360657,0.528137
177.812,-66.6875,-264.812,17.05,8.82,13.82,-45.3125,19.1875,70.75,-0.743469,-0.195679,0.360657,0.528137
177.25,-60.75,-248.438,16.44,8.24,13.46,-47.75,17.875,73.0625,-0.727356,-0.211609,0.368164,0.539124
175.125,-56.625,-233,15.74,7.6,13.06,-52.1875,15.1875,75.25,-0.696289,-0.241699,0.382141,0.557434
171.75,-52.75,-219.25,15.11,7.07,12.47,-54.1875,13.875,79.3125,-0.681396,-0.25592,0.388489,0.565002
167.375,-47.1875,-207.062,14.23,6.17,12.35,-56.125,12.5625,81.1875,-0.667114,-0.269653,0.394226,0.571716
161.562,-40.5,-195,13.9,5.66,12.35,-56.125,12.5625,81.1875,-0.667114,-0.269653,0.394226,0.571716
154.688,-34.1875,-182.312,13.42,5.2,12.13,-57.875,11.25,82.875,-0.653503,-0.282715,0.399353,0.577454
146.938,-28.5625,-169.062,12.81,4.68,11.88,-61,8.75,86,-0.628662,-0.306763,0.408081,0.58667
138.375,-23.25,-156.875,11.41,3.76,11.31,-62.375,7.625,87.4375,-0.61731,-0.317627,0.411621,0.590454
128.25,-19.125,-146.5,10.71,3.42,11.09,-63.5625,6.5,88.75,-0.606567,-0.327698,0.41449,0.594055
116.75,-15.8125,-139.438,10.05,3.1,11.09,-63.5625,6.5,88.75,-0.606567,-0.327698,0.41449,0.594055
103.938,-13.4375,-135.438,9.06,2.49,10.44,-64.625,5.375,90.0625,-0.596375,-0.337097,0.416565,0.597656
90.6875,-12.5625,-133.562,8.62,2.1,10,-66.375,4.25,91.4375,-0.576965,-0.353516,0.41864,0.605652
78.0625,-13.375,-133.25,8.26,1.68,9.15,-67.0625,2,94.125,-0.567566,-0.360657,0.418823,0.610291
66.4375,-16.0625,-133.75,7.97,1.3,8.5,-67.625,0.875,95.5625,-0.558228,-0.367065,0.418457,0.615295
55.375,-18.9375,-134.5,7.52,0.59,8.5,-67.625,0.875,95.5625,-0.558228,-0.367065,0.418457,0.615295
44.4375,-22.75,-134.562,7.44,0.28,8.26,-68.0625,-0.1875,97,-0.549011,-0.372681,0.417664,0.620728
32.8125,-25.625,-132.938,7.4,-0.03,8.06,-68.5625,-2.375,98.4375,-0.531494,-0.381531,0.414551,0.632507
21.1875,-28,-129.375,7.38,-0.27,7.39,-68.625,-3.375,101.312,-0.523499,-0.384766,0.412354,0.638672
9.6875,-29.25,-124.375,7.35,-0.82,7.24,-68.5625,-4.3125,102.625,-0.516113,-0.387146,0.40979,0.644775
-1.125,-29.9375,-117.125,7.35,-1.05,7.24,-68.5625,-4.3125,102.625,-0.516113,-0.387146,0.40979,0.644775
-11.125,-29.875,-107.75,7.44,-1.32,7.13,-68.375,-5.1875,103.875,-0.509583,-0.388733,0.406982,0.650818
-20.625,-29.0625,-96.25,7.54,-1.47,7.07,-67.75,-5.9375,104.938,-0.49939,-0.389648,0.400635,0.662048
-29.9375,-26.5625,-82.6875,7.79,-1.76,6.8,-67.3125,-7.125,106.688,-0.496094,-0.388977,0.397278,0.666931
-38.125,-23.125,-67.4375,7.93,-1.81,6.8,-66.875,-7.5,107.25,-0.494141,-0.387756,0.393738,0.671143
-45.5,-17.875,-50.75,8.08,-1.81,6.8,-66.875,-7.5,107.25,-0.494141,-0.387756,0.393738,0.671143
-51.8125,-11.875,-32.6875,8.34,-1.55,6.79,-66.3125,-7.75,107.562,-0.493591,-0.385986,0.390259,0.674622
-57.375,-5.6875,-13.8125,8.42,-1.3,6.82,-65.125,-7.875,107.688,-0.496765,-0.381104,0.38324,0.679077
-62.1875,1.5,4.25,8.51,-1.05,6.93,-64.5625,-7.6875,107.25,-0.500427,-0.378174,0.3797,0.679993
-66.5,9.5625,21.25,8.59,-0.79,6.89,-63.875,-7.4375,106.75,-0.505371,-0.375061,0.376099,0.680054
-70.125,18.375,37.1875,8.92,-0.29,6.89,-63.875,-7.4375,106.75,-0.505371,-0.375061,0.376099,0.680054
-72.625,27.0625,52.375,9.15,0,6.94,-63.25,-7.125,106,-0.511536,-0.371826,0.372437,0.67926
-74.375,34.5625,67.3125,9.47,0.37,7.13,-62.625,-6.6875,105.062,-0.527161,-0.364807,0.365112,0.675049
-76.625,40.5625,82.625,9.84,0.77,7.55,-61.25,-5.5,102.75,-0.53656,-0.360779,0.361633,0.671692
-79.6875,44.875,98.6875,10.38,1.48,7.62,-60.5625,-4.75,101.312,-0.547058,-0.356201,0.358215,0.66748
-82.9375,47.625,115.25,10.55,1.81,7.62,-60.5625,-4.75,101.312,-0.547058,-0.356201,0.358215,0.66748
-86.0625,49.1875,131.812,10.68,2.14,7.77,-59.8125,-3.875,99.6875,-0.558533,-0.350952,0.355042,0.662476
-89.0625,50.75,148.188,10.76,2.61,8.03,-58.125,-2.875,97.9375,-0.584167,-0.338623,0.34906,0.64978
-92.5,52.4375,163.688,11.14,3.66,9.19,-57.25,-0.625,94,-0.598267,-0.331604,0.346008,0.642212
-97.1875,55.3125,177.875,11.45,4.31,9.65,-56.25,0.5,91.875,-0.613098,-0.323914,0.342773,0.633789
-102.5,58.5625,190.875,11.81,5.05,9.65,-56.25,0.5,91.875,-0.613098,-0.323914,0.342773,0.633789
-108.375,62.8125,202.625,12.55,6.59,10.52,-55.1875,1.8125,89.625,-0.628601,-0.315735,0.339233,0.624573
-113.625,68.125,212.812,12.98,7.26,10.84,-54,3.125,87.25,-0.661072,-0.298279,0.330688,0.603821
-117.562,73.875,220.438,13.43,7.85,11.21,-51.375,5.625,82.3125,-0.677673,-0.289185,0.325806,0.592407
-120.188,78.9375,226.5,13.86,8.34,11.21,-50,6.875,79.75,-0.694275,-0.279968,0.320618,0.580322
-120.5,82.125,231.125,14.83,8.93,11.02,-50,6.875,79.75,-0.694275,-0.279968,0.320618,0.580322
-117.812,82,234.875,15.13,9.13,10.96,-48.5625,8.0625,77.1875,-0.710632,-0.27063,0.315491,0.567688
-112.312,79.125,239.75,15.36,9.28,10.89,-47.1875,9.3125,74.625,-0.742126,-0.251709,0.306641,0.540283
-105.688,73.5625,244.938,15.44,9.35,11.46,-44.375,11.8125,69.5,-0.757263,-0.241882,0.303101,0.525513
-99.9375,67,251.375,15.58,9.61,11.46,-42.9375,13.0625,66.875,-0.772095,-0.231812,0.30011,0.51001
-96.375,61.8125,259.188,15.66,9.85,11.98,-42.9375,13.0625,66.875,-0.772095,-0.231812,0.30011,0.51001
-96.875,59.25,268.25,15.62,10.2,12.39,-41.4375,14.4375,64.1875,-0.786804,-0.22113,0.297241,0.493652
-100.812,59.625,277.812,15.53,10.55,12.67,-39.8125,15.75,61.4375,-0.816162,-0.19812,0.290588,0.458435
-105.25,63.3125,285.75,15.42,11.13,12.88,-36.1875,18.125,55.75,-0.830688,-0.186157,0.286316,0.439697
-108.625,69.5625,291.188,15.42,11.34,12.88,-34.1875,19.1875,52.875,-0.84491,-0.174011,0.281494,0.420288
-109.875,75.875,295.312,15.4,11.44,12.87,-34.1875,19.1875,52.875,-0.84491,-0.174011,0.281494,0.420288
-109.062,81.8125,298.188,15.26,11.72,13.03,-32.0625,20.125,49.9375,-0.858704,-0.161987,0.276062,0.400269
-107.688,88.125,299.25,15.21,11.8,13.23,-27.75,20.875,47,-0.884766,-0.138428,0.263184,0.358826
-107.5,95.1875,298.312,15.26,11.9,13.47,-25.5,21.875,41.25,-0.896912,-0.126709,0.255676,0.337891
-109.062,101.75,295.125,15.38,12.02,13.47,-23.1875,22.0625,38.4375,-0.908386,-0.114929,0.247314,0.317017
-112.625,107.125,291.062,15.7,12.17,13.69,-23.1875,22.0625,38.4375,-0.908386,-0.114929,0.247314,0.317017
-117.625,112,286.438,15.96,12.24,13.78,-20.875,22.125,35.6875,-0.919189,-0.102844,0.238281,0.296265
-123.625,116.188,281.375,16.25,12.37,13.91,-16.0625,22,33,-0.93866,-0.0776978,0.218079,0.255493
-130.188,120,277.438,16.51,12.55,13.67,-13.5625,21.1875,27.875,-0.947388,-0.0643921,0.207153,0.235413
-136.938,122.5,273.875,16.75,12.76,13.67,-11.125,20.625,25.375,-0.955322,-0.0506592,0.195801,0.215454
-142.938,123.812,271.062,16.69,12.76,13.35,-11.125,20.625,25.375,-0.955322,-0.0506592,0.195801,0.215454
-146.5,122.5,268.625,16.52,12.64,13.01,-8.6875,19.875,22.9375,-0.962524,-0.0366211,0.184326,0.195618
-147.5,119.5,265.875,16.32,12.46,12.73,-4,19.0625,20.5625,-0.974365,-0.00830078,0.161804,0.156128
-146.188,114.875,263.812,15.68,11.94,12.33,-1.75,17.25,15.8125,-0.979065,0.0057373,0.151001,0.136414
-144.375,109.5,262.125,15.16,11.72,12.2,0.3125,16.25,13.5,-0.982971,0.0197144,0.140442,0.116699
-143.562,105.625,260.938,14.54,11.6,12.08,0.3125,16.25,13.5,-0.982971,0.0197144,0.140442,0.116699
-145.188,104.188,258.375,13.4,11.25,11.67,2.4375,15.1875,11.1875,-0.986206,0.0337524,0.129883,0.0971069
-148.75,105,253.938,12.89,10.95,11.22,4.5,14.0625,9,-0.990417,0.0626221,0.108215,0.059021
-152.938,105.875,248.375,12.52,10.62,10.74,8.5,11.4375,4.6875,-0.991394,0.0773315,0.09729,0.0407715
-156.125,105.875,242.25,12.17,10.34,10.37,10.4375,10.0625,2.625,-0.99176,0.0921021,0.0863647,0.0228882
-157.438,105.375,236.938,11.63,9.83,9.78,10.4375,10.0625,2.625,-0.99176,0.0921021,0.0863647,0.0228882
-157.625,104.188,232.938,11.35,9.58,9.48,12.3125,8.625,0.5625,-0.991394,0.10675,0.0755005,0.00531006
-157.875,102.312,230.75,10.94,9.35,9.15,15.8125,7.1875,358.562,-0.988831,0.135864,0.0540161,-0.0293579
-157.5,101.938,229.25,10.52,9.07,8.71,17.5,4.0625,354.562,-0.986633,0.150208,0.0432129,-0.0465088
-156.438,102.312,228.25,9.74,8.65,7.81,19.0625,2.4375,352.562,-0.983826,0.164246,0.0322876,-0.0635986
-154.438,103.25,228.125,9.27,8.48,7.33,19.0625,2.4375,352.562,-0.983826,0.164246,0.0322876,-0.0635986
-151.562,104.938,228.938,8.75,8.32,6.88,20.625,0.6875,350.562,-0.980469,0.177979,0.0212402,-0.0807495
-148.312,105.375,230.375,8.21,8.26,6.51,22.0625,-1,348.5,-0.972107,0.204285,-0.0010376,-0.115295
-145,103.125,232,6.47,8.3,5.32,24.625,-4.5625,344.375,-0.967102,0.216736,-0.0116577,-0.132568
-141.25,97.5,231.688,5.24,8.38,4.68,25.8125,-6.3125,342.312,-0.961731,0.228577,-0.0216064,-0.149597
-135.875,89.75,227.562,3.88,8.5,4.02,25.8125,-6.3125,342.312,-0.961731,0.228577,-0.0216064,-0.149597
-128.688,81.6875,217.625,1.44,8.66,3.05,26.875,-7.9375,340.25,-0.956116,0.239563,-0.0308228,-0.165894
-121.125,73.375,201.25,0.52,8.59,2.65,27.8125,-9.4375,338.438,-0.944885,0.259338,-0.0464478,-0.194336
-113.875,65.6875,179.562,-0.05,8.43,2.3,29.5625,-12.0625,335.25,-0.939636,0.26825,-0.0526733,-0.205811
-108.062,58.0625,154.562,-0.4,8.2,1.99,30.3125,-13.125,334,-0.934692,0.276733,-0.0578003,-0.215393
-103.062,49.9375,129.562,-0.42,7.51,1.37,30.3125,-13.125,334,-0.934692,0.276733,-0.0578003,-0.215393
-98.625,41.1875,107.062,-0.33,7.15,0.99,31.125,-14,332.938,-0.930176,0.284729,-0.0617676,-0.223328
-93.4375,32.1875,89,-0.2,6.8,0.52,31.875,-14.6875,332.062,-0.926025,0.299011,-0.0666504,-0.235901
-87,23,75.9375,-0.11,6.52,0.17,33.25,-15.75,330.562,-0.918762,0.305054,-0.067749,-0.241272
-79.4375,12.6875,68,-0.2,6.24,-0.12,33.75,-16.125,329.812,-0.915588,0.310242,-0.0681152,-0.246582
-71.5625,2.25,64,-0.47,6.18,-0.22,33.75,-16.125,329.812,-0.915588,0.310242,-0.0681152,-0.246582
-63.625,-6.625,61.4375,-0.86,6.18,-0.29,34.25,-16.375,329.125,-0.912659,0.314697,-0.0678711,-0.251892
-54.9375,-13.5,58.1875,-1.2,6.12,-0.34,34.625,-16.5625,328.438,-0.909973,0.321045,-0.0662842,-0.261841
-45.0625,-17.625,52.875,-1.75,6.07,-0.84,35.0625,-16.8125,327.25,-0.905945,0.322876,-0.0651245,-0.266113
-33.1875,-21.75,45.8125,-1.84,5.95,-0.89,35.125,-16.8125,326.75,-0.904663,0.323547,-0.0637207,-0.269897
-19.1875,-26.3125,38.25,-1.74,5.85,-0.9,35.125,-16.8125,326.75,-0.904663,0.323547,-0.0637207,-0.269897
-4.1875,-30.9375,31.6875,-1.4,5.78,-0.54,35.0625,-16.75,326.312,-0.903992,0.322998,-0.0621338,-0.273193
10.875,-37,27.25,-1.29,5.83,-0.2,34.8125,-16.625,326,-0.90387,0.318054,-0.0582275,-0.279175
25.375,-43.875,24.9375,-1.36,5.88,0.15,33.9375,-16.125,325.312,-0.904907,0.313721,-0.0558472,-0.282166
39,-51.6875,23.25,-1.58,5.88,0.63,33.25,-15.75,325.062,-0.906067,0.308228,-0.0530396,-0.285034
51.875,-59.375,20.125,-1.96,5.94,1.6,33.25,-15.75,325.062,-0.906067,0.308228,-0.0530396,-0.285034
63.6875,-66.3125,14.5625,-2.09,6,2.13,32.5,-15.3125,324.812,-0.907654,0.301697,-0.0499268,-0.287537
73.4375,-72.125,6.0625,-2.12,6.03,2.63,31.6875,-14.75,324.625,-0.909607,0.294312,-0.0422363,-0.290771
81.5,-77.6875,-4.75,-2.13,6.05,3.17,29.9375,-13.3125,324.688,-0.914856,0.277405,-0.0376587,-0.291016
87.6875,-81.5,-17.8125,-1.91,5.96,3.86,29,-12.4375,324.688,-0.91803,0.268311,-0.0326538,-0.290161
92.375,-84.1875,-32.75,-1.63,6.02,4.12,29,-12.4375,324.875,-0.91803,0.268311,-0.0326538,-0.290161
96.9375,-87.4375,-48.1875,-1.21,6.05,4.4,28.0625,-11.4375,325.25,-0.92157,0.258728,-0.0271606,-0.288147
102.75,-92.25,-62.6875,-0.75,6.07,4.64,27.0625,-10.375,325.75,-0.925476,0.248596,-0.0211182,-0.280884
110.5,-98.25,-75.6875,0.26,6.15,5.62,24.9375,-7.9375,327.062,-0.934204,0.225952,-0.00732422,-0.276062
119.125,-105.25,-86.4375,0.76,6.24,6.22,23.75,-6.5625,327.812,-0.938782,0.213318,0.000427246,-0.270569
127.5,-112.5,-95.5,1.22,6.28,6.73,23.75,-6.5625,327.812,-0.938782,0.213318,0.000427246,-0.270569
135.5,-118.312,-103.812,2.01,6.34,8.1,22.5,-5.125,328.625,-0.94342,0.199829,0.00860596,-0.264404
142,-124.25,-110.875,2.26,6.4,8.75,21.1875,-3.5625,329.562,-0.948059,0.185608,0.0263062,-0.250549
146,-130.562,-117.062,2.58,6.43,9.38,18.375,-0.375,331.5,-0.956787,0.155701,0.0358887,-0.242859
148.875,-136,-123.562,2.97,6.57,10.14,16.875,1.25,332.562,-0.960815,0.140198,0.0458984,-0.234558
150.5,-141.25,-130.812,4.05,7.01,12.01,16.875,1.25,332.562,-0.960815,0.140198,0.0458984,-0.234558
151.312,-144.875,-138.438,4.57,7.48,13.05,15.375,3,333.625,-0.9646,0.124512,0.0562744,-0.225586
151.312,-145.562,-146.688,5.09,8.04,14.01,13.875,4.6875,334.812,-0.968079,0.108643,0.0772095,-0.205139
150.812,-143.312,-156.062,5.74,8.61,14.93,10.625,8,337.5,-0.974182,0.0769043,0.0872192,-0.19342
151.438,-138.125,-167.812,7.2,9.14,15.98,8.9375,9.5625,337.5,-0.976929,0.0606689,0.0966187,-0.180481
154.438,-131.438,-180.438,7.93,9.1,16.28,8.9375,9.5625,339,-0.976929,0.0606689,0.0966187,-0.180481
160.688,-126.625,-191.75,8.63,8.96,16.67,7.0625,11.0625,340.688,-0.97937,0.0438843,0.105591,-0.166626
168.625,-124.688,-200.875,9.22,8.86,17.14,5.0625,12.4375,342.375,-0.981445,0.00823975,0.122803,-0.136658
176,-125.062,-207.438,9.91,8.98,18.21,0.625,15.0625,345.938,-0.983887,-0.010437,0.131226,-0.120911
180.562,-125.938,-212.562,10.08,9.3,18.73,-1.625,16.25,347.812,-0.984253,-0.0291748,0.139526,-0.104736
181.312,-124.75,-216.625,10.21,9.67,19.27,-1.625,16.25,347.812,-0.984253,-0.0291748,0.139526,-0.104736
177.562,-120.312,-220.625,10.27,9.99,19.62,-4.0625,17.3125,349.75,-0.984009,-0.0476074,0.1474,-0.0881958
170.562,-113.312,-225.312,10.45,10.46,19.7,-6.4375,18.25,351.688,-0.983276,-0.0653687,0.154541,-0.0534668
163.688,-105.062,-231.188,10.55,10.61,19.55,-11.1875,19.4375,355.875,-0.980347,-0.0994873,0.166504,-0.0351562
159.812,-96.25,-238.438,10.8,10.71,19.44,-13.625,19.8125,358.062,-0.978149,-0.116394,0.171326,-0.0162354
159.125,-89.625,-246.312,11.46,10.63,19.51,-13.625,19.8125,358.062,-0.978149,-0.116394,0.171326,-0.0162354
160.75,-85,-255.438,11.7,10.44,19.41,-16.125,19.9375,0.375,-0.975403,-0.133423,0.175598,0.00335693
162.812,-82.3125,-263.875,11.89,10.15,19.2,-18.6875,19.9375,2.75,-0.971863,-0.150696,0.179382,0.0444336
163.812,-81.25,-271,12.02,9.81,18.96,-23.8125,19.5,7.75,-0.962708,-0.185242,0.186096,0.0654907
163.062,-80.9375,-274.938,11.99,9.05,18.49,-26.3125,19.0625,7.75,-0.957031,-0.202026,0.189026,0.0866699
159.625,-79.4375,-276.688,11.76,8.67,18.25,-26.3125,19.0625,10.3125,-0.957031,-0.202026,0.189026,0.0866699
153.562,-76.8125,-276,11.55,8.31,17.9,-28.75,18.4375,12.9375,-0.950806,-0.218201,0.191589,0.107788
145.875,-72.6875,-274.25,11.3,8.01,17.5,-31,17.75,15.5,-0.944092,-0.233643,0.193665,0.128784
137.562,-66.3125,-271.875,10.81,7.37,16.47,-35.125,15.9375,20.6875,-0.929626,-0.262146,0.195618,0.1698
130.375,-59.3125,-269.188,10.56,6.96,16.02,-37,15.9375,20.6875,-0.921875,-0.275513,0.195557,0.189697
124.625,-51.9375,-265.25,10.43,6.57,15.53,-37,14.8125,23.25,-0.921875,-0.275513,0.195557,0.189697
117.375,-38.3125,-255.812,10.35,6.19,15.16,-38.6875,13.5625,25.6875,-0.914185,-0.288147,0.194397,0.208496
117.375,-38.3125,-255.812,10.36,5.46,14.73,-40.3125,12.3125,28.125,-0.905884,-0.300659,0.193176,0.227173
114,-31.625,-249.062,10.41,4.94,14.65,-43.25,9.5625,32.8125,-0.888977,-0.324341,0.189087,0.262146
109.25,-23.8125,-240.188,10.35,4.35,14.58,-43.25,9.5625,32.8125,-0.881287,-0.3349,0.185974,0.276855
97.5625,-8.5625,-214.688,9.75,3.02,14.13,-44.4375,8.125,34.875,-0.881287,-0.3349,0.185974,0.276855
91.5625,0.25,-200.875,9.39,2.36,13.92,-45.5,6.75,36.75,-0.87384,-0.344788,0.182373,0.290344
91.5625,0.25,-200.875,9.02,1.69,13.78,-46.5,5.375,38.625,-0.866089,-0.354553,0.178772,0.315857
84.6875,8.6875,-187.938,8.66,1.15,13.63,-48.125,2.6875,41.875,-0.852478,-0.37146,0.1698,0.326233
65,20.25,-165.625,8.15,0.51,13.41,-48.625,2.6875,41.875,-0.846802,-0.378052,0.16449,0.33606
51.8125,24.375,-157.562,7.95,0.23,13.19,-48.625,1.375,43.25,-0.846802,-0.378052,0.16449,0.33606
36.875,25.375,-150.625,7.72,-0.13,12.83,-49,0.125,44.625,-0.841614,-0.383484,0.158875,0.345459
20.8125,23,-144.75,7.52,-0.49,12.41,-49.1875,-1.0625,45.875,-0.836975,-0.387573,0.153198,0.354736
4.375,17.6875,-138.375,7.25,-1.01,11.94,-49.0625,-3.1875,48.375,-0.829285,-0.391113,0.14209,0.372986
-13.3125,9.4375,-131.875,6.98,-1.1,11.88,-48.6875,-3.1875,48.375,-0.826355,-0.39032,0.136902,0.382141
-32.375,-0.0625,-126.188,6.57,-1.1,11.7,-48.6875,-4.125,49.625,-0.826355,-0.39032,0.136902,0.382141
-51.0625,-8.5625,-123.375,6.03,-1.08,11.34,-48.125,-4.9375,50.8125,-0.823914,-0.387878,0.131775,0.391602
-67.9375,-14.875,-123.5,5.44,-1.11,10.41,-47.375,-5.75,52.0625,-0.821838,-0.384033,0.126465,0.401428
-83.125,-19.1875,-124.625,5.56,-1.12,10.22,-45.4375,-7.1875,54.5,-0.818481,-0.372681,0.115173,0.421814
-96.4375,-22.875,-123.938,5.86,-1.17,10.08,-44.25,-7.1875,54.5,-0.817261,-0.365356,0.109436,0.432007
-108.375,-27,-119.812,6.49,-1.48,9.95,-44.25,-7.8125,55.6875,-0.817261,-0.365356,0.109436,0.432007
-119.625,-30.875,-112.438,6.71,-1.62,9.9,-42.9375,-8.375,56.8125,-0.816528,-0.356934,0.103699,0.441772
-130.562,-33.5625,-101.125,6.85,-1.66,9.77,-41.5625,-8.8125,57.8125,-0.816284,-0.347534,0.0980835,0.450867
-142.438,-35.375,-87.4375,7.1,-1.57,9.75,-38.4375,-9.25,59.3125,-0.817993,-0.325562,0.0869141,0.466187
-154.688,-35.0625,-72.1875,7.47,-1.27,9.34,-36.6875,-9.25,59.3125,-0.820007,-0.313171,0.0811157,0.472107
-165.875,-33.1875,-55.75,7.74,-1.15,9.03,-36.6875,-9.3125,59.8125,-0.820007,-0.313171,0.0811157,0.472107
-174.812,-31.375,-37.75,8.03,-1.07,8.68,-34.9375,-9.3125,60.125,-0.822815,-0.300049,0.0753174,0.476746
-180.562,-30.6875,-17.4375,8.34,-0.95,8.33,-33.125,-9.125,60.25,-0.826416,-0.286316,0.0697021,0.479797
-182.812,-30.6875,5.1875,8.71,-0.76,7.83,-29.625,-8.5,59.8125,-0.835815,-0.258118,0.0599365,0.480774
-181.312,-29.875,28.75,8.79,-0.61,7.68,-27.9375,-8.5,59.8125,-0.841614,-0.244202,0.0558472,0.478516
-177,-27.625,52.875,8.8,-0.5,7.64,-27.9375,-8,59.1875,-0.841614,-0.244202,0.0558472,0.478516
-170.062,-23.0625,76.4375,8.76,-0.4,7.73,-26.375,-7.4375,58.375,-0.847961,-0.230774,0.0521851,0.474304
-161.5,-15.1875,99.125,8.65,-0.19,8.06,-24.9375,-6.9375,57.375,-0.854919,-0.21814,0.0487671,0.46814
-153.062,-5,120.875,8.77,-0.07,8.32,-22.3125,-5.9375,54.625,-0.870361,-0.195435,0.041626,0.450012
-145.5,6.625,142.812,8.9,0.03,8.55,-22.3125,-5.9375,54.625,-0.878845,-0.185303,0.0377197,0.438049
-139,18,164.75,8.95,0.41,8.86,-21.0625,-5.5,52.9375,-0.878845,-0.185303,0.0377197,0.438049
-133.938,28.125,186,8.93,0.72,9.05,-19.9375,-5.125,51.0625,-0.887756,-0.175781,0.0335693,0.424133
-130.062,38.375,205.375,8.9,1.1,9.19,-18.875,-4.8125,48.9375,-0.896973,-0.166748,0.0290527,0.408447
-127.75,49.25,222.562,8.86,1.43,9.24,-16.8125,-4.4375,44.1875,-0.915771,-0.150024,0.0184937,0.372192
-125.562,59.8125,238.125,9,2.01,9.39,-16.8125,-4.4375,44.1875,-0.925049,-0.142273,0.0125122,0.351929
-122.562,69,252.375,8.94,2.32,9.38,-15.8125,-4.375,41.625,-0.925049,-0.142273,0.0125122,0.351929
-118.062,76.0625,265.188,8.85,2.57,9.35,-14.875,-4.4375,38.9375,-0.934143,-0.13501,0.00622559,0.330261
-112,81.9375,276,8.86,2.79,9.43,-14,-4.5,36.125,-0.942871,-0.128235,-0.000183105,0.307556
-104.938,88.25,284.625,8.8,2.98,9.69,-12.5,-4.9375,30.25,-0.958618,-0.116638,-0.0137329,0.259216
-98,93.9375,291.812,8.74,3.01,9.82,-12.5,-4.9375,30.25,-0.965576,-0.111633,-0.0206909,0.233948
-91.9375,96.9375,298.188,8.69,3.05,9.92,-11.875,-5.25,27.1875,-0.965576,-0.111633,-0.0206909,0.233948
-88,98.625,304.5,8.66,3.16,10.07,-11.375,-5.625,24.125,-0.971863,-0.106873,-0.0275879,0.207947
-85.625,102.5,310.125,8.73,3.34,10.75,-10.8125,-6,21,-0.977478,-0.102356,-0.034668,0.181274
-86.0625,107.75,315.562,8.86,3.45,11.29,-9.875,-7,14.5625,-0.986389,-0.0929565,-0.0501099,0.126038
-89.375,114.25,320.75,9.05,3.67,11.9,-9.875,-7,14.5625,-0.989624,-0.0876465,-0.0587158,0.0975342
-95.1875,121.625,325.5,9.16,4.15,12.33,-9.375,-7.625,11.25,-0.989624,-0.0876465,-0.0587158,0.0975342
-101.062,127.5,328.5,9.06,4.32,12.3,-8.875,-8.3125,7.875,-0.992004,-0.0818481,-0.067749,0.0686035
-105.438,130.75,328.5,9.01,4.43,12.23,-8.375,-9.125,4.5,-0.993347,-0.0756226,-0.0769653,0.0394897
-107.312,129.812,324.438,8.88,4.41,12.08,-7.4375,-10.6875,1.1875,-0.993408,-0.062439,-0.0947266,-0.017395
-107.562,124,317.312,8.38,3.84,12.04,-7.4375,-10.6875,357.938,-0.992188,-0.0557251,-0.102478,-0.0446167
-107.625,114.25,307.562,8.17,3.48,12.2,-7,-11.4375,354.812,-0.992188,-0.0557251,-0.102478,-0.0446167
-109.312,102.812,297.312,8.18,3.31,12.56,-6.5625,-12.0625,351.75,-0.990295,-0.0487061,-0.109253,-0.0709229
-114.938,92.75,287.938,8.24,3.31,13.03,-6.0625,-12.625,348.812,-0.987793,-0.0411987,-0.115112,-0.0964355
-124.875,83.75,278.688,8.37,3.72,13.87,-4.8125,-13.6875,345.938,-0.981323,-0.0232544,-0.124268,-0.145142
-137.562,77.125,269.625,8.72,4.04,14.33,-4.8125,-13.6875,343.125,-0.977295,-0.0126953,-0.127869,-0.168457
-150.188,71.8125,261,9.06,4.15,14.36,-4,-14.1875,340.438,-0.977295,-0.0126953,-0.127869,-0.168457
-158.688,65.625,253,9.27,3.95,13.9,-3.0625,-14.6875,337.75,-0.972839,-0.00134277,-0.130676,-0.19104
-161.062,57.3125,247.375,9.57,3.45,12.73,-2.1875,-15.125,335.125,-0.967896,0.0100708,-0.132751,-0.213074
-158.438,48.375,243.375,9.7,3.38,12.43,-0.4375,-15.5,332.562,-0.956787,0.0317383,-0.134583,-0.25592
-154.25,39.6875,241.625,9.85,3.31,12.22,-0.4375,-15.875,330,-0.950439,0.0418091,-0.134583,-0.277039
-150,32.5,242.625,10.03,3.25,11.99,0.25,-16.1875,327.438,-0.950439,0.0418091,-0.134583,-0.277039
-145.375,28.5625,247.125,10.27,3.05,11.41,0.9375,-16.5,324.875,-0.943542,0.0513306,-0.134277,-0.29834
-140.062,25.8125,254.688,10.3,3,11.15,1.5625,-16.75,322.188,-0.935974,0.0602417,-0.133911,-0.320007
-134.5,24.4375,263.875,10.33,3.07,11.11,2.5625,-17.4375,319.5,-0.918335,0.0762939,-0.13324,-0.364807
-129.812,25.375,273.812,10.39,3.51,11.44,2.5625,-17.4375,316.625,-0.918335,0.0836792,-0.133301,-0.387817
-125.438,27.875,281.812,10.44,3.63,11.37,2.875,-17.875,313.75,-0.908203,0.0836792,-0.133301,-0.387817
-119.188,30.875,287.375,10.47,3.66,11.11,3.125,-18.3125,310.75,-0.897278,0.0905762,-0.133789,-0.410828
-110.25,31.25,290.812,10.52,3.56,10.79,3.25,-18.75,307.812,-0.885681,0.0967407,-0.134521,-0.433716
-100.438,28,294.188,10.8,3.36,10.61,3.125,-19.1875,304.812,-0.860657,0.106018,-0.135864,-0.479187
-91.75,21.8125,298.25,11.04,3.31,10.86,3.125,-19.5625,301.75,-0.860657,0.106018,-0.135986,-0.502014
-86.375,12.75,304.75,11,3.3,11.22,2.9375,-19.875,298.688,-0.847046,0.109314,-0.135986,-0.502014
-85.1875,2.3125,311.875,10.72,3.39,11.45,2.6875,-20,295.5,-0.832703,0.111877,-0.135376,-0.525085
-87.125,-8.1875,318.438,10,3.62,11.85,2.375,-20.0625,292.25,-0.817566,0.113953,-0.13385,-0.54834
-91.625,-17,323.812,9.49,3.8,11.94,1.875,-20.0625,289,-0.784729,0.117554,-0.128357,-0.594849
-97.0625,-23.8125,326.625,8.99,3.96,11.96,1.875,-19.9375,285.625,-0.784729,0.119263,-0.124512,-0.617615
-101.875,-28.5625,326.188,8.53,4.14,11.93,1.75,-19.75,282.312,-0.767334,0.119263,-0.124512,-0.617615
-104.812,-32.5625,322.938,8.08,4.24,11.81,1.625,-19.5,279,-0.749451,0.120911,-0.120178,-0.639709
-105.688,-38.125,318.625,7.96,4.12,11.77,1.5625,-19.25,275.75,-0.731262,0.122253,-0.115234,-0.661072
-105.25,-45.5625,314.875,7.9,4.06,11.83,1.5625,-18.875,272.5,-0.693909,0.123352,-0.103638,-0.701843
-105.438,-54.1875,312.125,7.87,4.06,12.54,1.5,-18.4375,269.312,-0.693909,0.123352,-0.0966797,-0.721313
-107.875,-63.9375,310.375,7.81,4.13,13.1,1.5625,-17.9375,266.125,-0.674683,0.123169,-0.0966797,-0.721313
-113.562,-75.5,309.75,7.62,4.12,13.71,1.6875,-17.25,262.938,-0.654968,0.122437,-0.088623,-0.740417
-122.125,-88.875,309.75,7.22,4.13,14.22,2,-16.5,259.75,-0.634705,0.121277,-0.0792236,-0.759033
-131.938,-103.312,308.562,6.26,4.28,15.16,2.375,-15.625,256.562,-0.592896,0.117371,-0.0559692,-0.794678
-141.75,-118.5,305.938,5.54,4.34,15.5,2.9375,-14.625,253.438,-0.592896,0.117371,-0.0421143,-0.811462
-150.25,-134.75,300.938,4.6,4.36,15.96,3.625,-13.5,250.312,-0.571594,0.114319,-0.0421143,-0.811462
-157.438,-148.25,291.5,3.56,4.3,16.45,4.5,-12.25,247.25,-0.550354,0.110718,-0.0269775,-0.827148
-164,-157.812,276.375,1.74,3.88,17.42,5.5,-10.9375,244.375,-0.529602,0.106628,-0.0107422,-0.841431
-170.75,-165.625,255.938,1.12,3.46,17.79,6.6875,-9.625,241.625,-0.491333,0.0976562,0.0245972,-0.865112
-176.812,-170.188,231.25,1.09,2.96,18.11,8,-8.3125,239.125,-0.491333,0.0932617,0.0432129,-0.874512
-182.438,-169.188,208.938,1.75,2.52,18.54,9.5,-7,236.875,-0.473999,0.0932617,0.0432129,-0.874512
-188.688,-167.312,196.875,3.8,2.03,19.71,11.0625,-5.75,234.75,-0.457214,0.0891113,0.0622559,-0.88269
-195.875,-169.062,197.688,4.37,1.85,20.16,12.75,-4.5,232.562,-0.439941,0.085083,0.0818481,-0.890259
-203.375,-173.75,206.75,4.28,1.83,20.61,14.5625,-3.375,230.312,-0.401855,0.0767822,0.122986,-0.904114
-211.938,-179.5,217.812,3.12,2.57,21.47,16.5,-2.25,227.875,-0.401855,0.0767822,0.144836,-0.910278
-223.188,-185.312,227.062,2.03,3.18,21.87,18.5625,-1.1875,225.375,-0.380981,0.0725098,0.144836,-0.910278
-236.625,-188.375,230,0.56,3.66,21.93,20.8125,-0.25,222.812,-0.359375,0.0684204,0.167603,-0.915466
-249.25,-186.875,221.938,-1.01,3.92,21.52,23.25,0.5625,220.312,-0.337891,0.0646362,0.191162,-0.919312
-258.688,-179.25,199.875,-3.91,3.84,20.36,25.8125,1.3125,218.062,-0.317932,0.0582275,0.239197,-0.921448
-263.375,-168.75,165.875,-4.59,3.4,19.6,28.375,2.0625,216.062,-0.300476,0.0582275,0.239197,-0.919739
-265.625,-161.438,126.562,-4.66,2.9,19.26,31.0625,2.8125,214.5,-0.28595,0.0549316,0.263245,-0.919739
-269.438,-158.188,89.4375,-4.18,2.49,19.2,33.75,3.625,213.25,-0.274109,0.0511475,0.287476,-0.916321
-276.875,-154.562,60.375,-2.52,2.13,18.78,36.5,4.5,212.312,-0.264404,0.0469971,0.312134,-0.911316
-286.688,-149.812,42.0625,-1.88,1.98,18.32,39.4375,5.4375,211.562,-0.255981,0.0429688,0.362854,-0.897339
-297.5,-145.438,33.25,-1.46,1.83,17.76,42.375,6.25,210.875,-0.248108,0.0392456,0.388855,-0.888672
-307.062,-142.375,30.75,-1.24,1.68,17.17,45.5,7.0625,210.25,-0.240295,0.0357666,0.388855,-0.888672
-315.75,-138.188,31,-1.43,1.6,16,48.75,7.75,209.562,-0.232361,0.0328369,0.4151,-0.878967
-322.438,-129.75,30.625,-2.08,1.63,15.14,52,8.3125,208.938,-0.224548,0.0305786,0.441284,-0.868286
-325.375,-115.125,26.5,-2.95,1.73,14.17,55.3125,8.75,208.438,-0.217346,0.0292969,0.492188,-0.843933
-325.875,-95.1875,17.6875,-3.48,1.6,13.11,58.625,9.125,208.125,-0.211426,0.0290527,0.516418,-0.830383
-325.438,-71.4375,6.4375,-3.42,1.55,12.53,61.875,9.4375,208,-0.207092,0.0300293,0.516418,-0.830383
-324.438,-47.1875,-5.625,-3.33,1.47,11.75,65.0625,9.6875,208.125,-0.204529,0.0321655,0.539795,-0.815918
-323.562,-27.75,-18.1875,-3.19,1.41,10.93,68.25,9.9375,208.5,-0.203552,0.0349731,0.562439,-0.800598
-321.875,-11.3125,-30.75,-2.55,1.49,9.29,71.3125,10.25,209.125,-0.204102,0.038269,0.605286,-0.767761
-319.625,3.5,-41.875,-1.98,1.57,8.46,74.375,10.625,210,-0.205933,0.0419312,0.605286,-0.750305
-317.625,17.875,-48.625,-1.35,1.69,7.65,77.4375,11.0625,211.062,-0.208801,0.0460815,0.625549,-0.750305
-315.25,32.375,-50.0625,-0.7,1.86,6.72,80.375,11.4375,212.312,-0.212402,0.0510864,0.644897,-0.732361
-310.562,47.25,-45.8125,0.22,2.15,4.8,83.3125,11.8125,213.688,-0.21637,0.0570679,0.663208,-0.714172
-303.938,60.75,-37.5625,0.4,2.43,3.99,86.125,12.125,215.125,-0.22052,0.0641479,0.696472,-0.677795
-296.25,69.0625,-29,0.31,2.64,3.31,88.8125,12.375,216.625,-0.224487,0.0720215,0.696472,-0.677795
-287.812,73.0625,-23.6875,0,2.9,2.6,91.4375,12.625,218.125,-0.228333,0.0802612,0.711426,-0.659729
-278.688,75.0625,-24.25,-0.52,3.09,1.33,94,12.875,219.75,-0.232239,0.0883179,0.725464,-0.641846
-270.312,74.3125,-30.3125,-0.75,3.34,0.93,96.4375,13.25,221.438,-0.236389,0.0957642,0.738708,-0.623901
-264.438,70.125,-41.375,-0.95,3.73,0.41,98.875,13.75,223.312,-0.240723,0.102112,0.751343,-0.605835
-261.438,64.9375,-57.25,-1.26,4.57,-1.11,101.25,14.375,225.312,-0.245483,0.107117,0.763733,-0.587402
-259.312,57.1875,-77.5,-1.4,4.92,-2.24,103.688,15.25,227.562,-0.250549,0.110291,0.775879,-0.568359
-255.312,43.1875,-103.188,-1.53,5.12,-3.5,106.062,16.3125,229.938,-0.25592,0.110962,0.787964,-0.548889
-246.188,24.3125,-134.562,-1.33,5.01,-4.65,108.5,17.625,232.562,-0.261414,0.108459,0.799866,-0.529236
-229.875,7.4375,-168.562,0.62,4.07,-5.93,110.938,19.1875,235.312,-0.267273,0.102417,0.81134,-0.509766
-208.75,-2.625,-199.875,2.32,3.57,-5.99,113.188,21,238.25,-0.273804,0.0933228,0.821838,-0.490845
-188.125,-5.875,-222.188,4.04,3.21,-6.15,115.375,22.9375,241.438,-0.281006,0.0819702,0.831299,-0.472534
-171.375,-5.9375,-230.688,5.4,2.98,-6.29,117.5,24.875,244.75,-0.288513,0.0695801,0.8396,-0.454895
-160.125,-3.375,-226.375,7.24,2.47,-6.7,119.625,26.8125,248.062,-0.295959,0.057251,0.846985,-0.437927
-154.25,3,-213.062,7.66,2.15,-7,121.625,28.5625,251.438,-0.303223,0.0459595,0.853394,-0.421448
-150.688,12.3125,-194.625,7.68,1.94,-7.36,123.625,30.25,254.812,-0.310425,0.0362549,0.859009,-0.405457
-147.625,19.9375,-176.25,7.51,1.77,-7.73,125.5,31.75,258.25,-0.317383,0.0280151,0.863953,-0.390015
-142.812,22.9375,-161.875,7.29,1.19,-8.8,127.375,33.125,261.625,-0.323975,0.020752,0.868286,-0.375122
-134.312,20.8125,-153.062,7.03,0.94,-9.5,129.188,34.4375,264.875,-0.330078,0.013855,0.87207,-0.361023
-121.75,13,-149.875,6.77,0.7,-9.98,130.938,35.625,267.875,-0.335449,0.00665283,0.875488,-0.347778
-107.125,0.375,-153.062,6.27,0.31,-10.4,132.75,36.6875,270.688,-0.339844,-0.00164795,0.878601,-0.33551
-92.25,-17.125,-161.438,6.08,0.06,-10.48,134.5,37.75,273.25,-0.34314,-0.0114746,0.881592,-0.323975
-77.875,-37.4375,-173.125,5.84,-0.17,-10.42,136.438,38.625,275.562,-0.345093,-0.0231323,0.884521,-0.313049
-66.1875,-57.0625,-187,5.78,-0.36,-10.14,138.438,39.4375,277.625,-0.345825,-0.0366821,0.887451,-0.30249
-58.8125,-70.25,-201.062,6.56,-0.92,-9.87,140.625,40.1875,279.625,-0.345825,-0.0518188,0.890198,-0.291931
-55.6875,-73.875,-210.688,7.43,-1.32,-9.82,142.938,40.9375,281.688,-0.345642,-0.0678711,0.892639,-0.28125
-54.1875,-68.9375,-212.125,8.55,-1.8,-9.84,145.25,41.5625,283.875,-0.345764,-0.0838623,0.894592,-0.270508
-52.5625,-58.125,-203.438,9.53,-2.18,-10.12,147.5,42.1875,286.125,-0.346313,-0.0990601,0.895874,-0.260132
-50.875,-45.8125,-185.125,10.74,-3.02,-10.59,149.625,42.75,288.375,-0.34729,-0.112549,0.896667,-0.250427
-49.5625,-36.125,-160.062,10.64,-3.38,-10.88,151.5,43.1875,290.5,-0.348389,-0.123962,0.897156,-0.241638
-47.5625,-26.8125,-134.312,10.32,-3.72,-11.04,153.188,43.5625,292.438,-0.349548,-0.133301,0.897461,-0.233765
-44.375,-17.5625,-111.625,10.02,-3.95,-11.27,154.625,43.875,294.188,-0.350891,-0.140808,0.897522,-0.226868
-40.0625,-10,-94.3125,9.01,-4.09,-11.69,155.812,44.1875,295.812,-0.352417,-0.146912,0.897461,-0.220947
-35.5625,-6.5625,-83.1875,8.51,-4.06,-11.79,156.938,44.4375,297.25,-0.353882,-0.152283,0.897217,-0.215637
-31.375,-5.1875,-78.75,8.22,-4.06,-11.72,157.938,44.6875,298.625,-0.355347,-0.15741,0.896912,-0.210876
-29.0625,-2.6875,-79.5,8.15,-4.28,-11.64,158.938,44.9375,299.938,-0.356934,-0.162598,0.896484,-0.206238
-28.625,0.5625,-83.625,7.98,-4.3,-11.83,160,45.25,301.312,-0.358765,-0.168091,0.895752,-0.201538
-29.125,-0.625,-88.9375,7.82,-4.29,-12,161.125,45.5,302.75,-0.360657,-0.17395,0.89502,-0.196594
-29.875,-9.3125,-94.1875,8.16,-4.27,-11.86,162.312,45.75,304.25,-0.361938,-0.180298,0.894348,-0.191345
-30,-18.5625,-98.375,8.39,-3.96,-12.25,163.562,45.8125,305.688,-0.362549,-0.187134,0.89386,-0.185791
-28.25,-26.75,-101.312,8.62,-3.98,-12.61,164.875,45.875,307.125,-0.362549,-0.194336,0.893494,-0.180115
-23.625,-33.8125,-102.062,8.75,-4.17,-13.05,166.188,45.75,308.438,-0.361938,-0.201782,0.893188,-0.174622
-14.0625,-37.9375,-100.375,9.05,-4.34,-13.12,167.375,45.625,309.562,-0.360779,-0.209473,0.892822,-0.169861
-0.0625,-36.625,-95.0625,10.3,-4.38,-12.56,168.375,45.5,310.312,-0.359314,-0.217163,0.892212,-0.166321
14.5,-29.875,-85.25,10.48,-4.44,-12.37,169.125,45.375,310.688,-0.358032,-0.224426,0.891357,-0.164246
27.8125,-19.8125,-71.25,10.3,-4.48,-12.11,169.562,45.3125,310.688,-0.356995,-0.230957,0.890198,-0.163818
40.25,-8.3125,-55.375,10.13,-4.46,-11.77,169.75,45.3125,310.25,-0.356323,-0.23645,0.888794,-0.164978
49.75,3.5625,-40.5,9.42,-4.11,-10.75,169.625,45.4375,309.562,-0.35614,-0.240906,0.887146,-0.167603
54,11.625,-28.125,9.01,-3.73,-10.26,169.375,45.5625,308.688,-0.356323,-0.244507,0.885437,-0.171021
53.8125,15.125,-20.5,8.56,-3.27,-9.89,169,45.75,307.75,-0.356628,-0.247437,0.883789,-0.174744
51.25,13.4375,-18.875,8.27,-2.94,-9.63,168.688,45.9375,306.875,-0.356873,-0.250183,0.882202,-0.178284
48.3125,7.1875,-22.875,7.73,-2.49,-9.49,168.438,46.0625,306.062,-0.356689,-0.253235,0.880798,-0.181335
45.8125,-2.625,-30.375,7.61,-2.16,-9.38,168.312,46.0625,305.375,-0.355957,-0.256897,0.879517,-0.183777
44.0625,-14.0625,-39.875,7.67,-1.75,-9.26,168.312,46,304.75,-0.354614,-0.261414,0.878357,-0.185547
43,-23.5625,-49.625,7.78,-1.05,-9.73,168.375,45.875,304.188,-0.352661,-0.266724,0.877258,-0.186707
44.5,-31,-58.3125,7.85,-0.78,-9.91,168.625,45.6875,303.625,-0.350281,-0.272888,0.87616,-0.187622
49.625,-37.3125,-65.4375,8.03,-0.4,-9.71,168.812,45.5,303,-0.347412,-0.279785,0.874939,-0.188477
55.625,-42.6875,-70.875,8.12,0,-9.49,169.062,45.1875,302.25,-0.344055,-0.287292,0.873596,-0.189453
59.9375,-49.1875,-73.8125,7.82,0.68,-9.3,169.25,44.875,301.438,-0.340149,-0.295288,0.872253,-0.190552
63.25,-58,-74.5,7.42,1.09,-9.23,169.438,44.4375,300.5,-0.335449,-0.303528,0.870972,-0.19165
67,-67.3125,-74.875,6.99,1.08,-8.92,169.625,43.9375,320.5,-0.329956,-0.312012,0.869873,-0.192688
72.9375,-72.5625,-75.75,7.15,1.22,-8.48,169.75,43.375,319.438,-0.323914,-0.32074,0.868652,-0.194031
79.875,-75.5,-78,5.07,1.81,-8.27,169.75,42.8125,318.312,-0.317505,-0.329895,0.867249,-0.195679
85.5,-82.875,-85.375,5.13,1.65,-7.58,169.812,42.125,317.125,-0.310425,-0.339783,0.865601,-0.197327
90.4375,-75.6875,-94.5,4.58,1.62,-7.12,169.875,41.5625,315.812,-0.303833,-0.350281,0.863281,-0.19928
92.5,-62.3125,-103.812,4.21,1.48,-6.79,169.938,41.1875,314.375,-0.298279,-0.361267,0.860168,-0.201477
91.1875,-51,-111.125,4.41,1.43,-6,170.062,40.875,312.938,-0.29364,-0.372498,0.856445,-0.203735
86.75,-36.375,-115.75,4.33,1.5,-5.91,170.188,40.6875,311.5,-0.290283,-0.383606,0.852173,-0.205994
79.5,-22.875,-118.125,4.42,1.44,-5.78,170.438,40.6875,310.062,-0.288086,-0.394409,0.847412,-0.208069
71.3125,-9.6875,-117.812,4.6,1.21,-5.08,170.75,40.8125,308.625,-0.287048,-0.404724,0.842468,-0.209961
63.25,7.75,-115.188,4.94,1.09,-4.95,171.062,41.0625,307.312,-0.287476,-0.414307,0.837158,-0.211914
55.75,28,-110.375,5.45,0.94,-5.14,171.438,41.4375,306.062,-0.289429,-0.422974,0.831543,-0.214172
49.6875,41.25,-103.125,6,0.76,-5.33,171.75,42,304.875,-0.292419,-0.430664,0.825928,-0.216614
45.9375,46.3125,-92.0625,6.37,0.55,-5.4,172.062,42.5625,303.875,-0.295654,-0.437317,0.820557,-0.219177
43.875,48.0625,-78.625,6.6,0.46,-5.29,172.312,43.125,302.938,-0.298828,-0.442993,0.815613,-0.222046
42.5625,50.25,-63.6875,5.74,0.49,-5.18,172.375,43.6875,302.188,-0.30188,-0.447449,0.811096,-0.22522
41.1875,52.625,-52,4.07,0.53,-5.24,172.438,44.25,301.562,-0.304932,-0.45105,0.807007,-0.228699
41.625,52.5,-51.375,2.53,0.79,-4.29,172.438,44.8125,285.938,-0.307861,-0.454651,0.802856,-0.232239
45.4375,53,-63.1875,2.21,0.74,-3.48,172.562,45.4375,285.625,-0.310974,-0.459045,0.798157,-0.235718
45.3125,56.5625,-85.6875,1.9,0.54,-3.52,172.875,46.0625,285.625,-0.314697,-0.464844,0.792419,-0.238708
41.75,66.875,-112.75,2.34,0.35,-3.72,173.5,46.875,285.938,-0.319824,-0.472107,0.785278,-0.241089
37.375,82.0625,-135.75,4.88,0.21,-3.86,174.5,47.75,286.625,-0.326477,-0.480408,0.776794,-0.243164
32.3125,92.6875,-146.938,6.75,0,-3.92,175.688,48.8125,287.5,-0.334229,-0.489014,0.767578,-0.244995
26.875,94.5625,-142.812,7.93,-0.32,-4.29,176.938,49.8125,288.438,-0.342163,-0.497009,0.758362,-0.246582
22,89.4375,-126,8.29,-0.67,-5.45,178.188,50.6875,289.25,-0.349609,-0.503845,0.749939,-0.248047
19.375,86.1875,-103.062,8.27,-0.88,-6.68,179.188,51.5625,289.875,-0.356323,-0.509094,0.742554,-0.249939
22.6875,84.0625,-78.5625,7.17,-0.65,-7.13,179.938,52.375,290.188,-0.362305,-0.512878,0.736145,-0.252563
31,78.3125,-58.625,6.08,-0.14,-6.74,-179.562,53.125,290.188,-0.367065,-0.515808,0.73053,-0.256104
37.0625,74.375,-50.6875,4.84,0.75,-5.45,-179.25,53.875,289.938,-0.371094,-0.518433,0.725159,-0.260071
38.0625,75.125,-54.375,4.06,0.75,-4.74,-178.875,54.5625,289.75,-0.375244,-0.521301,0.719543,-0.263977
36.9375,73.25,-73.125,4.51,0.55,-4.53,-178.188,55.25,289.688,-0.3797,-0.525269,0.713135,-0.26709
39.6875,73.5625,-102.562,5.55,0.26,-5.16,-177.062,55.9375,289.938,-0.384644,-0.531006,0.705322,-0.26947
48.375,80.8125,-132.688,8.86,-0.43,-7.45,-175.5,56.625,290.312,-0.390259,-0.538635,0.695557,-0.271606
58.625,88.375,-150.438,10.35,-0.29,-7.67,-173.75,57.375,290.625,-0.396179,-0.547302,0.684387,-0.274109
64.6875,92.4375,-147.938,11.61,-0.1,-7.34,-171.938,58.0625,290.812,-0.401917,-0.555786,0.672852,-0.2771
66.5,90.125,-127.562,12.22,0.1,-6.99,-170.375,58.75,290.75,-0.40686,-0.563171,0.66217,-0.280762
66.1875,85.5,-98.9375,11.71,0.16,-6.91,-169.188,59.375,290.438,-0.410828,-0.568909,0.652893,-0.285095
66.3125,79,-72.6875,11.42,0.05,-6.98,-168.375,60,289.875,-0.413696,-0.573242,0.64502,-0.290039
68.625,74.0625,-55,10.86,0,-6.95,-167.875,60.5625,289.188,-0.415771,-0.576843,0.638062,-0.29541
73.25,75.5,-46.625,9.86,0.22,-6.91,-167.562,61.1875,288.312,-0.417419,-0.580017,0.631287,-0.301392
79.6875,80.3125,-46.5625,10.35,0.18,-6.69,-167.188,61.875,287.312,-0.418945,-0.583191,0.624146,-0.307922
86.125,85.5,-49.875,10.62,0.22,-6.63,-166.75,62.5625,286.312,-0.420471,-0.586609,0.616333,-0.31488
92.0625,87.3125,-51.3125,11.4,0.17,-6.83,-166.312,63.25,285.25,-0.421814,-0.59021,0.608215,-0.322205
99.375,90.4375,-49.5,14.02,-0.11,-7.67,-165.938,64,284,-0.422791,-0.593811,0.599792,-0.330017
109.438,93.625,-39.3125,14.61,0.02,-7.85,-165.75,64.8125,282.625,-0.423096,-0.597046,0.59137,-0.338806
121.125,98.1875,-22.3125,14.38,0.1,-8.06,-165.938,65.6875,280.875,-0.422546,-0.599609,0.583191,-0.348999
134.188,106.562,-4.6875,13.84,0.2,-7.95,-166.625,66.625,278.812,-0.421082,-0.60144,0.575134,-0.360779
147.188,114.5,9.875,12.8,0.21,-6.29,-167.688,67.75,276.438,-0.418823,-0.6026,0.567017,-0.374084
156.5,124.438,20.875,12.11,0.07,-5.27,-169.062,69,273.875,-0.416077,-0.603149,0.558655,-0.388611
159.062,136.312,26.5,11.86,-0.28,-4.3,-170.688,70.3125,271.312,-0.413452,-0.602905,0.549927,-0.403931
152.938,144.75,26.625,11.58,-0.68,-3.49,-172.312,71.75,268.875,-0.411438,-0.60199,0.540894,-0.41925
140.562,144.875,21.125,10.88,-1.23,-2.64,-173.75,73.1875,266.75,-0.410095,-0.600647,0.531921,-0.433716
126,136.75,10,10.76,-1.31,-2.7,-174.875,74.5,265,-0.409424,-0.599487,0.52301,-0.446594
113.375,127.375,-5.5,11.45,-1.48,-2.88,-175.375,75.6875,263.562,-0.409485,-0.598816,0.513977,-0.457825
105.062,120.75,-18.625,11.96,-1.7,-3.26,-175.25,76.875,262.438,-0.410095,-0.598511,0.504761,-0.467834
102.812,115.938,-24,12.19,-1.13,-2.5,-174.75,77.9375,261.438,-0.410767,-0.59845,0.495422,-0.477173
104.062,115.188,-22.8125,11.88,-0.49,-1.37,-174.188,79.0625,260.375,-0.411194,-0.598328,0.486023,-0.486511
102,117.812,-17.5,11.12,-0.17,-0.13,-173.562,80.1875,259.312,-0.41156,-0.597717,0.476807,-0.496033
91.9375,114.062,-14.6875,10.94,-0.4,0.07,-172.812,81.25,258.438,-0.412109,-0.59668,0.468201,-0.504944
76.5,105.125,-15.625,10.97,-0.45,0.05,-171.562,82.25,257.688,-0.413025,-0.595459,0.460449,-0.512695
60.75,91.625,-18.4375,11.15,-0.4,0.37,-169.625,83.0625,257.188,-0.414307,-0.594299,0.453674,-0.518982
44.875,75.5625,-18.875,10.81,-0.22,0.22,-178.625,83.75,256.875,-0.415771,-0.593262,0.44812,-0.523804
28.875,56.75,-15.1875,10.59,-0.13,-0.33,-178.5,84.25,256.688,-0.417175,-0.592285,0.444031,-0.527222
12.75,30.6875,-5.5,10.65,-0.67,-0.73,-178.438,84.5,256.562,-0.417908,-0.591614,0.442139,-0.529053
-1.25,-4.25,15.0625,8.38,-0.52,-0.44,-178.562,84.5,256.438,-0.417114,-0.591187,0.443115,-0.529297
-12.5,-54.3125,39.6875,7.2,0.07,0.98,-178.938,84.125,256.188,-0.41394,-0.591675,0.447571,-0.527527
-26.0625,-98.25,55,7.94,2.84,3.88,-179.438,83.25,256,-0.409058,-0.593018,0.454895,-0.523499
-42.3125,-87.25,51.5625,5.76,3.08,2.89,-179.438,82.375,255.938,-0.405518,-0.593445,0.462341,-0.519287
-60.4375,-54.875,26.875,3.35,2.52,0.63,179.188,81.875,256.375,-0.405212,-0.592712,0.468201,-0.515076
-77.9375,-66.25,-5.875,3.2,1.69,-1.15,-179.625,81.25,257.312,-0.406738,-0.59314,0.473511,-0.508423
-87.6875,-106.688,-28.75,6.31,0.15,-2.19,-177.25,80.1875,258.562,-0.408081,-0.595825,0.479492,-0.498596
-87.3125,-129.5,-31.5,6.76,-0.12,-2.9,-175.188,78.9375,259.938,-0.408508,-0.599487,0.486023,-0.487366
-76.625,-126.812,-19.4375,6.66,0.19,-3.28,-174.062,77.6875,261.062,-0.407959,-0.602783,0.492493,-0.477112
-60.8125,-114.438,-4.25,6.39,0.66,-3.79,-173.812,76.5625,261.875,-0.406433,-0.605469,0.498657,-0.468567
-43.4375,-117.625,10.625,6.14,0.78,-3.61,-174.25,75.4375,262.312,-0.403259,-0.608154,0.504944,-0.46106
-26.1875,-140.875,24.875,5.98,1.01,-1.7,-175.375,74.125,262.438,-0.397644,-0.611633,0.512024,-0.453552
-13.1875,-157.938,37.0625,5.03,0.87,-0.71,-176.75,72.625,262.312,-0.390015,-0.61554,0.519653,-0.445984
-5.8125,-165.125,46.1875,4.17,0.78,-2.4,-178.312,71,261.938,-0.381287,-0.619507,0.52771,-0.438599
0.625,-178.5,53.125,4.69,0.77,-4.14,-179.812,69.3125,261.438,-0.371277,-0.623657,0.536133,-0.430969
16.1875,-195.938,60.875,5.46,0.87,-4.8,178.562,67.375,260.625,-0.359253,-0.628479,0.5448,-0.423218
36.9375,-215.312,68.875,5.65,0.97,-4.89,176.875,65.3125,259.375,-0.34491,-0.633972,0.553589,-0.415527
