Gyro_x,Gyro_y,Gyro_z,Acc_x,Acc_y,Acc_z,Mag_x,Mag_y,Mag_z,Euler_x,Euler_y,Euler_z,Quat_0,Quat_1,Quat_2,Quat_3
-0.1875,0.0625,0.125,8.44,-0.55,4.9,-20.75,-20.25,-19.6875,6.3125,59.875,193.938,0.105103,0.492126,-0.0925903,0.859192
-0.125,0.125,-0.125,8.46,-0.54,4.92,-20.75,-20.25,-19.6875,6.3125,59.875,193.938,0.105103,0.492126,-0.0925903,0.859192
0.0625,0.25,0,8.42,-0.51,4.95,-21.5,-20.25,-20,6.3125,59.875,193.938,0.105103,0.492126,-0.0925903,0.859192
0.125,0.0625,0.0625,8.43,-0.54,4.95,-21.5,-20.25,-20,6.3125,59.875,193.938,0.105103,0.492126,-0.0925903,0.859192
-0.0625,-0.125,-0.0625,8.46,-0.56,4.91,-21.5,-20.25,-20,6.3125,59.875,193.938,0.105103,0.492126,-0.0925903,0.859192
0,-0.0625,0.125,8.46,-0.55,4.97,-21.5,-20.25,-20,6.3125,59.875,193.938,0.105103,0.492126,-0.0925903,0.859192
0.125,0,0.1875,8.42,-0.53,4.95,-21.5,-20.25,-20,6.3125,59.875,193.938,0.105103,0.492126,-0.0925903,0.859192
0.0625,0.125,0,8.44,-0.52,4.97,-21.1875,-20.25,-19.5625,6.3125,59.875,193.938,0.105103,0.492126,-0.0925903,0.859192
0,-0.0625,-0.125,8.45,-0.51,4.94,-21.1875,-20.25,-19.5625,6.3125,59.875,193.938,0.105103,0.492126,-0.0925903,0.859192
-0.0625,0.0625,0,8.45,-0.53,4.93,-21.1875,-20.25,-19.5625,6.3125,59.875,193.938,0.105103,0.492126,-0.0925903,0.859192
0,0,-0.125,8.46,-0.51,4.98,-21.1875,-20.25,-19.5625,6.3125,59.875,193.938,0.105103,0.492126,-0.0925903,0.859192
0.0625,0,-0.0625,8.45,-0.55,4.96,-21.1875,-20.25,-19.5625,6.3125,59.875,193.938,0.105103,0.492126,-0.0925903,0.859192
-0.0625,-0.0625,-0.0625,8.45,-0.53,4.96,-21.1875,-20.6875,-18.75,6.3125,59.875,193.938,0.105103,0.492126,-0.0925903,0.859192
0,0,-0.0625,8.47,-0.52,4.96,-21.1875,-20.6875,-18.75,6.3125,59.875,193.938,0.105103,0.492126,-0.0925903,0.859192
0,0.125,-0.0625,8.46,-0.54,4.94,-21.1875,-20.6875,-18.75,6.3125,59.875,193.938,0.105103,0.492126,-0.0925903,0.859192
0,0.125,0,8.45,-0.55,4.97,-21.1875,-20.6875,-18.75,6.3125,59.875,193.938,0.105103,0.492126,-0.0925903,0.859192
0.0625,0.125,-0.0625,8.44,-0.53,4.96,-21.1875,-20.6875,-18.75,6.3125,59.875,193.938,0.105103,0.492126,-0.0925903,0.859192
0.0625,0.1875,0,8.43,-0.53,4.99,-22.25,-21.75,-19.6875,6.3125,59.875,193.938,0.105103,0.492126,-0.0925903,0.859192
0.0625,0.0625,0.1875,8.44,-0.55,4.98,-22.25,-21.75,-19.6875,6.3125,59.875,193.938,0.105103,0.492126,-0.0925903,0.859192
-0.0625,0.125,0,8.45,-0.53,4.94,-22.25,-21.75,-19.6875,6.3125,59.875,193.938,0.105103,0.492126,-0.0925903,0.859192
0,0.125,0,8.46,-0.54,4.95,-22.25,-21.75,-19.6875,6.3125,59.875,193.938,0.105103,0.492126,-0.0925903,0.859192
0,0.1875,0,8.45,-0.53,4.95,-22.25,-21.75,-19.6875,6.3125,59.875,193.938,0.105103,0.492126,-0.0925903,0.859192
0,0.0625,-0.0625,8.45,-0.56,4.96,-21.875,-20.6875,-18.75,6.3125,59.875,193.938,0.105103,0.492126,-0.0925903,0.859192
0,0.0625,0.125,8.41,-0.52,4.97,-21.875,-20.6875,-18.75,6.3125,59.875,193.938,0.105103,0.492126,-0.0925903,0.859192
-0.0625,0.125,0,8.42,-0.53,4.93,-21.875,-20.6875,-18.75,6.3125,59.875,193.938,0.105103,0.492126,-0.0925903,0.859192
0.0625,0.125,-0.0625,8.42,-0.54,4.94,-21.875,-20.6875,-18.75,6.3125,59.875,193.938,0.105103,0.492126,-0.0925903,0.859192
0.0625,0.0625,-0.125,8.42,-0.54,4.97,-21.875,-20.6875,-18.75,6.3125,59.875,193.938,0.105103,0.492126,-0.0925903,0.859192
0.0625,-0.125,-0.125,8.45,-0.52,4.94,-21.875,-19.875,-20.5,6.3125,59.875,193.938,0.105103,0.492126,-0.0925903,0.859192
0.0625,-0.0625,-0.0625,8.45,-0.54,4.95,-21.875,-19.875,-20.5,6.3125,59.875,193.938,0.105103,0.492126,-0.0925903,0.859192
0.0625,-0.125,-0.125,8.44,-0.53,4.95,-21.875,-19.875,-20.5,6.3125,59.875,193.938,0.105103,0.492126,-0.0925903,0.859192
-0.0625,0.0625,-0.0625,8.44,-0.53,4.93,-21.875,-19.875,-20.5,6.3125,59.875,193.938,0.105103,0.492126,-0.0925903,0.859192
0,-0.0625,-0.0625,8.44,-0.55,4.97,-21.875,-19.875,-20.5,6.3125,59.875,193.938,0.105103,0.492126,-0.0925903,0.859192
0.0625,-0.125,-0.0625,8.43,-0.52,4.96,-20.375,-21.0625,-20,6.3125,59.875,193.938,0.105103,0.492126,-0.0925903,0.859192
0,0,0.0625,8.45,-0.54,4.96,-20.375,-21.0625,-20,6.3125,59.875,193.938,0.105103,0.492126,-0.0925903,0.859192
0.0625,0,0,8.43,-0.55,4.94,-20.375,-21.0625,-20,6.3125,59.875,193.938,0.105103,0.492126,-0.0925903,0.859192
0,0.0625,0,8.44,-0.52,4.93,-20.375,-21.0625,-20,6.3125,59.875,193.938,0.105103,0.492126,-0.0925903,0.859192
0.125,0.0625,0,8.43,-0.53,4.97,-20.375,-21.0625,-20,6.3125,59.875,193.938,0.105103,0.492126,-0.0925903,0.859192
-0.0625,0.125,0.0625,8.45,-0.53,4.97,-20.375,-19.5625,-18.75,6.3125,59.875,193.938,0.105103,0.492126,-0.0925903,0.859192
-0.0625,0,0.125,8.41,-0.54,4.95,-20.375,-19.5625,-18.75,6.3125,59.875,193.938,0.105103,0.492126,-0.0925903,0.859192
0.0625,0.25,0.0625,8.44,-0.54,4.94,-20.375,-19.5625,-18.75,6.3125,59.875,193.938,0.105103,0.492126,-0.0925903,0.859192
0,0.1875,0.1875,8.44,-0.54,4.93,-20.375,-19.5625,-18.75,6.3125,59.875,193.938,0.105103,0.492126,-0.0925903,0.859192
0.0625,0.125,0,8.43,-0.53,4.95,-20.375,-19.5625,-18.75,6.3125,59.875,193.938,0.105103,0.492126,-0.0925903,0.859192
-0.0625,-0.1875,0.0625,8.42,-0.54,4.98,-21.1875,-20.25,-20,6.3125,59.875,193.938,0.105103,0.492126,-0.0925903,0.859192
0.0625,0,0.0625,8.41,-0.53,4.95,-21.1875,-20.25,-20,6.3125,59.875,193.938,0.105103,0.492126,-0.0925903,0.859192
0,0,0,8.43,-0.53,4.92,-21.1875,-20.25,-20,6.3125,59.875,193.938,0.105103,0.492126,-0.0925903,0.859192
0,-0.1875,-0.0625,8.44,-0.53,4.95,-21.1875,-20.25,-20,6.3125,59.875,193.938,0.105103,0.492126,-0.0925903,0.859192
0.125,-0.1875,0.125,8.46,-0.53,4.97,-21.1875,-20.25,-20,6.3125,59.875,193.938,0.105103,0.492126,-0.0925903,0.859192
-0.0625,0,-0.0625,8.44,-0.53,4.96,-20.375,-20.25,-19.6875,6.3125,59.875,193.938,0.105103,0.492126,-0.0925903,0.859192
0,0.0625,0,8.42,-0.55,4.94,-20.375,-20.25,-19.6875,6.3125,59.875,193.938,0.105103,0.492126,-0.0925903,0.859192
0.0625,0,0,8.42,-0.51,4.97,-20.375,-20.25,-19.6875,6.3125,59.875,193.938,0.105103,0.492126,-0.0925903,0.859192
0,0,-0.0625,8.44,-0.55,4.95,-20.375,-20.25,-19.6875,6.3125,59.875,193.938,0.105103,0.492126,-0.0925903,0.859192
0.0625,-0.125,0,8.44,-0.54,4.95,-20.375,-20.25,-19.6875,6.3125,59.875,193.938,0.105103,0.492126,-0.0925903,0.859192
0.0625,-0.125,-0.125,8.45,-0.53,4.98,-20.75,-20.6875,-19.6875,6.3125,59.875,193.938,0.105103,0.492126,-0.0925903,0.859192
0.0625,0,0,8.44,-0.52,4.95,-20.75,-20.6875,-19.6875,6.3125,59.875,193.938,0.105103,0.492126,-0.0925903,0.859192
0.0625,-0.125,0.0625,8.45,-0.54,4.92,-20.75,-20.6875,-19.6875,6.3125,59.875,193.938,0.105103,0.492126,-0.0925903,0.859192
0,-0.0625,-0.125,8.45,-0.53,4.92,-20.75,-20.6875,-19.6875,6.3125,59.875,193.938,0.105103,0.492126,-0.0925903,0.859192
0,0,0,8.46,-0.55,4.96,-20.75,-20.6875,-19.6875,6.3125,59.875,193.938,0.105103,0.492126,-0.0925903,0.859192
0.1875,-0.125,0.0625,8.46,-0.51,4.95,-20.75,-19.875,-19.6875,6.3125,59.875,193.938,0.105103,0.492126,-0.0925903,0.859192
0.125,-0.125,0.0625,8.44,-0.53,4.95,-20.75,-19.875,-19.6875,6.3125,59.875,193.938,0.105103,0.492126,-0.0925903,0.859192
-0.0625,-0.0625,0.125,8.45,-0.55,4.94,-20.75,-19.875,-19.6875,6.3125,59.875,193.938,0.105103,0.492126,-0.0925903,0.859192
-0.0625,0.125,0.125,8.46,-0.53,4.95,-20.75,-19.875,-19.6875,6.3125,59.875,193.938,0.105103,0.492126,-0.0925903,0.859192
-0.0625,0.4375,0.25,8.45,-0.53,4.95,-20.75,-19.875,-19.6875,6.3125,59.875,193.938,0.105103,0.492126,-0.0925903,0.859192
0,0.4375,0.3125,8.43,-0.53,4.98,-21.5,-20.25,-20.5,6.3125,59.875,193.938,0.105103,0.492126,-0.0925903,0.859192
0,0.5,0.375,8.43,-0.55,4.97,-21.5,-20.25,-20.5,6.3125,59.875,193.938,0.105103,0.492126,-0.0925903,0.859192
-0.125,0.5,0.1875,8.42,-0.56,4.94,-21.5,-20.25,-20.5,6.3125,59.875,193.938,0.105103,0.492126,-0.0925903,0.859192
-0.0625,0.375,0.25,8.41,-0.57,4.93,-21.5,-20.25,-20.5,6.3125,59.875,193.938,0.105103,0.492126,-0.0925903,0.859192
-0.0625,0.1875,0.125,8.42,-0.52,4.96,-21.5,-20.25,-20.5,6.3125,59.875,193.938,0.105103,0.492126,-0.0925903,0.859192
0.0625,0,0.0625,8.42,-0.55,4.96,-20,-20.25,-18.75,6.3125,59.875,193.938,0.105103,0.492126,-0.0925903,0.859192
0,-0.125,-0.0625,8.43,-0.55,4.94,-20,-20.25,-18.75,6.3125,59.875,193.938,0.105103,0.492126,-0.0925903,0.859192
-0.0625,-0.3125,-0.1875,8.44,-0.55,4.94,-20,-20.25,-18.75,6.3125,59.875,193.938,0.105103,0.492126,-0.0925903,0.859192
0.1875,-0.4375,-0.0625,8.44,-0.56,4.95,-20,-20.25,-18.75,6.3125,59.875,193.938,0.105103,0.492126,-0.0925903,0.859192
0.125,-0.4375,-0.0625,8.45,-0.54,4.95,-20,-20.25,-18.75,6.3125,59.875,193.938,0.105103,0.492126,-0.0925903,0.859192
0.0625,-0.3125,-0.0625,8.43,-0.54,4.96,-21.1875,-21.0625,-20,6.3125,59.875,193.938,0.105103,0.492126,-0.0925903,0.859192
0.0625,-0.4375,-0.1875,8.44,-0.53,4.97,-21.1875,-21.0625,-20,6.3125,59.875,193.938,0.105103,0.492126,-0.0925903,0.859192
0.0625,-0.3125,-0.1875,8.44,-0.53,4.94,-21.1875,-21.0625,-20,6.3125,59.875,193.938,0.105103,0.492126,-0.0925903,0.859192
0.0625,-0.25,-0.125,8.43,-0.54,4.93,-21.1875,-21.0625,-20,6.3125,59.875,193.938,0.105103,0.492126,-0.0925903,0.859192
0,-0.0625,0.0625,8.45,-0.54,4.94,-21.1875,-21.0625,-20,6.3125,59.875,193.938,0.105103,0.492126,-0.0925903,0.859192
0,0.0625,0,8.43,-0.54,4.94,-20.75,-20.25,-19.6875,6.3125,59.875,193.938,0.105103,0.492126,-0.0925903,0.859192
-0.0625,0.1875,0,8.45,-0.53,4.96,-20.75,-20.25,-19.6875,6.3125,59.875,193.938,0.105103,0.492126,-0.0925903,0.859192
0.125,0.25,0.0625,8.44,-0.54,4.93,-20.75,-20.25,-19.6875,6.3125,59.875,193.938,0.105103,0.492126,-0.0925903,0.859192
0,0.375,0.125,8.43,-0.52,4.97,-20.75,-20.25,-19.6875,6.3125,59.875,193.938,0.105103,0.492126,-0.0925903,0.859192
0.0625,0.3125,0.125,8.43,-0.53,4.97,-20.75,-20.25,-19.6875,6.3125,59.875,193.938,0.105103,0.492126,-0.0925903,0.859192
0,0.125,0.1875,8.44,-0.53,4.99,-20.75,-20.25,-20.5,6.3125,59.875,193.938,0.105103,0.492126,-0.0925903,0.859192
-0.0625,0.125,0,8.44,-0.52,4.94,-20.75,-20.25,-20.5,6.3125,59.875,193.938,0.105103,0.492126,-0.0925903,0.859192
-0.125,0,0,8.46,-0.51,4.92,-20.75,-20.25,-20.5,6.3125,59.875,193.938,0.105103,0.492126,-0.0925903,0.859192
0.0625,-0.0625,-0.25,8.45,-0.51,4.93,-20.75,-20.25,-20.5,6.3125,59.875,193.938,0.105103,0.492126,-0.0925903,0.859192
0.125,-0.25,-0.125,8.43,-0.52,4.97,-20.75,-20.25,-20.5,6.3125,59.875,193.938,0.105103,0.492126,-0.0925903,0.859192
0.125,-0.375,-0.1875,8.45,-0.55,4.96,-20.75,-19.875,-19.6875,6.3125,59.875,193.938,0.105103,0.492126,-0.0925903,0.859192
-0.125,-0.375,-0.0625,8.44,-0.56,4.94,-20.75,-19.875,-19.6875,6.3125,59.875,193.938,0.105103,0.492126,-0.0925903,0.859192
0.0625,-0.3125,0,8.45,-0.53,4.92,-20.75,-19.875,-19.6875,6.3125,59.875,193.938,0.105103,0.492126,-0.0925903,0.859192
0,0.0625,-0.1875,8.44,-0.5,4.98,-20.75,-19.875,-19.6875,6.3125,59.875,193.938,0.105103,0.492126,-0.0925903,0.859192
0.0625,0.0625,-0.0625,8.43,-0.51,4.93,-20.75,-19.875,-19.6875,6.3125,59.875,193.938,0.105103,0.492126,-0.0925903,0.859192
0,-0.0625,0,8.46,-0.54,4.92,-20.75,-19.875,-20,6.3125,59.875,193.938,0.105103,0.492126,-0.0925903,0.859192
-0.0625,0,-0.0625,8.44,-0.48,4.9,-20.75,-19.875,-20,6.3125,59.875,193.938,0.105103,0.492126,-0.0925903,0.859192
0.125,0,-0.0625,8.45,-0.55,4.96,-20.75,-19.875,-20,6.3125,59.875,193.938,0.105103,0.492126,-0.0925903,0.859192
0,-0.0625,0,8.44,-0.53,4.99,-20.75,-19.875,-20,6.3125,59.875,193.938,0.105103,0.492126,-0.0925903,0.859192
-0.125,0.125,0.125,8.45,-0.58,4.89,-20.75,-19.875,-20,6.3125,59.875,193.938,0.105103,0.492126,-0.0925903,0.859192
-0.125,0.3125,0.25,8.42,-0.54,4.96,-20.75,-19.875,-19.1875,6.3125,59.875,193.938,0.105103,0.492126,-0.0925903,0.859192
0,0.5625,0.125,8.41,-0.53,5.01,-20.75,-19.875,-19.1875,6.3125,59.875,193.938,0.105103,0.492126,-0.0925903,0.859192
0.0625,0.375,0.3125,8.42,-0.53,4.96,-20.75,-19.875,-19.1875,6.3125,59.875,193.938,0.105103,0.492126,-0.0925903,0.859192
-0.125,0.25,0.1875,8.43,-0.57,4.92,-20.75,-19.875,-19.1875,6.3125,59.875,193.938,0.105103,0.492126,-0.0925903,0.859192
-0.125,0.125,0.0625,8.41,-0.55,4.95,-20.75,-19.875,-19.1875,6.3125,59.875,193.938,0.105103,0.492126,-0.0925903,0.859192
0.0625,0.125,-0.0625,8.41,-0.54,4.97,-21.1875,-20.6875,-20.5,6.3125,59.875,193.938,0.105103,0.492126,-0.0925903,0.859192
0.125,-0.0625,0.0625,8.42,-0.54,4.98,-21.1875,-20.6875,-20.5,6.3125,59.875,193.938,0.105103,0.492126,-0.0925903,0.859192
-0.125,-0.1875,-0.125,8.43,-0.54,4.93,-21.1875,-20.6875,-20.5,6.3125,59.875,193.938,0.105103,0.492126,-0.0925903,0.859192
0,-0.3125,-0.125,8.44,-0.53,4.94,-21.1875,-20.6875,-20.5,6.3125,59.875,193.938,0.105103,0.492126,-0.0925903,0.859192
0.125,-0.25,-0.1875,8.46,-0.55,4.95,-21.1875,-20.6875,-20.5,6.3125,59.875,193.938,0.105103,0.492126,-0.0925903,0.859192
0.1875,-0.4375,-0.125,8.43,-0.53,4.97,-21.1875,-20.6875,-20,6.3125,59.875,193.938,0.105103,0.492126,-0.0925903,0.859192
0,-0.3125,0,8.45,-0.54,4.95,-21.1875,-20.6875,-20,6.3125,59.875,193.938,0.105103,0.492126,-0.0925903,0.859192
0.0625,-0.3125,-0.1875,8.47,-0.54,4.94,-21.1875,-20.6875,-20,6.3125,59.875,193.938,0.105103,0.492126,-0.0925903,0.859192
0,-0.4375,-0.125,8.44,-0.54,4.95,-21.1875,-20.6875,-20,6.3125,59.875,193.938,0.105103,0.492126,-0.0925903,0.859192
0.1875,-0.25,-0.125,8.45,-0.55,4.97,-21.1875,-20.6875,-20,6.3125,59.875,193.938,0.105103,0.492126,-0.0925903,0.859192
0.0625,-0.25,-0.1875,8.44,-0.52,4.95,-21.875,-19.875,-20.875,6.3125,59.875,193.938,0.105103,0.492126,-0.0925903,0.859192
-0.0625,-0.125,0,8.47,-0.54,4.97,-21.875,-19.875,-20.875,6.3125,59.875,193.938,0.105103,0.492126,-0.0925903,0.859192
0,-0.0625,0,8.45,-0.54,4.96,-21.875,-19.875,-20.875,6.3125,59.875,193.938,0.105103,0.492126,-0.0925903,0.859192
0,0,-0.0625,8.44,-0.53,4.97,-21.875,-19.875,-20.875,6.3125,59.875,193.938,0.105103,0.492126,-0.0925903,0.859192
-0.1875,0,0,8.43,-0.54,4.95,-21.875,-19.875,-20.875,6.3125,59.875,193.938,0.105103,0.492126,-0.0925903,0.859192
0,0,0.125,8.44,-0.54,4.94,-20.375,-19.875,-19.1875,6.3125,59.875,193.938,0.105103,0.492126,-0.0925903,0.859192
0,0.1875,0,8.44,-0.53,4.96,-20.375,-19.875,-19.1875,6.3125,59.875,193.938,0.105103,0.492126,-0.0925903,0.859192
0.0625,0.1875,0.0625,8.42,-0.55,4.94,-20.375,-19.875,-19.1875,6.3125,59.875,193.938,0.105103,0.492126,-0.0925903,0.859192
0.0625,0.3125,0.125,8.43,-0.52,4.98,-20.375,-19.875,-19.1875,6.3125,59.875,193.938,0.105103,0.492126,-0.0925903,0.859192
0,-0.0625,0.0625,8.45,-0.54,4.96,-20.375,-19.875,-19.1875,6.3125,59.875,193.938,0.105103,0.492126,-0.0925903,0.859192
0,0,0.0625,8.44,-0.53,4.97,-21.5,-21.0625,-18.375,6.3125,59.875,193.938,0.105103,0.492126,-0.0925903,0.859192
0.125,-0.0625,0,8.44,-0.55,4.96,-21.5,-21.0625,-18.375,6.3125,59.875,193.938,0.105103,0.492126,-0.0925903,0.859192
0,-0.125,-0.0625,8.42,-0.54,4.93,-21.5,-21.0625,-18.375,6.3125,59.875,193.938,0.105103,0.492126,-0.0925903,0.859192
0.0625,-0.25,0,8.41,-0.54,4.94,-21.5,-21.0625,-18.375,6.3125,59.875,193.938,0.105103,0.492126,-0.0925903,0.859192
0,-0.0625,-0.1875,8.44,-0.54,4.95,-21.5,-21.0625,-18.375,6.3125,59.875,193.938,0.105103,0.492126,-0.0925903,0.859192
0.0625,-0.375,-0.125,8.43,-0.53,4.99,-21.1875,-20.25,-19.6875,6.3125,59.875,193.938,0.105103,0.492126,-0.0925903,0.859192
0.0625,-0.4375,0,8.44,-0.55,4.95,-21.1875,-20.25,-19.6875,6.3125,59.875,193.938,0.105103,0.492126,-0.0925903,0.859192
0.0625,-0.1875,-0.125,8.44,-0.52,4.93,-21.1875,-20.25,-19.6875,6.3125,59.875,193.938,0.105103,0.492126,-0.0925903,0.859192
0.0625,-0.3125,-0.125,8.44,-0.54,4.97,-21.1875,-20.25,-19.6875,6.3125,59.875,193.938,0.105103,0.492126,-0.0925903,0.859192
0.0625,-0.25,-0.1875,8.46,-0.53,4.96,-21.1875,-20.25,-19.6875,6.3125,59.875,193.938,0.105103,0.492126,-0.0925903,0.859192
0,-0.3125,-0.125,8.45,-0.54,4.95,-20.375,-20.25,-18.375,6.3125,59.875,193.938,0.105103,0.492126,-0.0925903,0.859192
-0.0625,-0.1875,-0.0625,8.45,-0.53,4.92,-20.375,-20.25,-18.375,6.3125,59.875,193.938,0.105103,0.492126,-0.0925903,0.859192
0,0.125,0,8.44,-0.51,4.92,-20.375,-20.25,-18.375,6.3125,59.875,193.938,0.105103,0.492126,-0.0925903,0.859192
0.125,0.0625,0,8.44,-0.51,4.95,-20.375,-20.25,-18.375,6.3125,59.875,193.938,0.105103,0.492126,-0.0925903,0.859192
-0.0625,0.1875,0.125,8.45,-0.55,4.92,-20.375,-20.25,-18.375,6.3125,59.875,193.938,0.105103,0.492126,-0.0925903,0.859192
0,0.25,0.0625,8.44,-0.53,4.95,-21.5,-19.875,-20.5,6.3125,59.875,193.938,0.105103,0.492126,-0.0925903,0.859192
-0.0625,0.3125,0.1875,8.44,-0.51,4.97,-21.5,-19.875,-20.5,6.3125,59.875,193.938,0.105103,0.492126,-0.0925903,0.859192
0.0625,0.3125,0.125,8.43,-0.53,4.94,-21.5,-19.875,-20.5,6.3125,59.875,193.938,0.105103,0.492126,-0.0925903,0.859192
-0.0625,0.3125,0.125,8.43,-0.54,4.94,-21.5,-19.875,-20.5,6.3125,59.875,193.938,0.105103,0.492126,-0.0925903,0.859192
-0.0625,0.3125,0.1875,8.43,-0.53,4.94,-21.5,-19.875,-20.5,6.3125,59.875,193.938,0.105103,0.492126,-0.0925903,0.859192
0.0625,0.4375,0.125,8.44,-0.54,4.95,-21.5,-20.25,-19.1875,6.3125,59.875,193.938,0.105103,0.492126,-0.0925903,0.859192
0,0.1875,0,8.44,-0.54,4.97,-21.5,-20.25,-19.1875,6.3125,59.875,193.938,0.105103,0.492126,-0.0925903,0.859192
0.0625,0.125,0.0625,8.41,-0.53,4.96,-21.5,-20.25,-19.1875,6.3125,59.875,193.938,0.105103,0.492126,-0.0925903,0.859192
0,0.125,0,8.45,-0.53,4.94,-21.5,-20.25,-19.1875,6.3125,59.875,193.938,0.105103,0.492126,-0.0925903,0.859192
0.125,0.0625,0.0625,8.43,-0.54,4.94,-21.5,-20.25,-19.1875,6.3125,59.875,193.938,0.105103,0.492126,-0.0925903,0.859192
0,0.125,0.0625,8.42,-0.53,4.98,-21.1875,-20.25,-19.6875,6.3125,59.875,193.938,0.105103,0.492126,-0.0925903,0.859192
0,0.3125,0.0625,8.42,-0.52,4.99,-21.1875,-20.25,-19.6875,6.3125,59.875,193.938,0.105103,0.492126,-0.0925903,0.859192
0,0.25,0.0625,8.41,-0.54,4.92,-21.1875,-20.25,-19.6875,6.3125,59.875,193.938,0.105103,0.492126,-0.0925903,0.859192
0.125,-0.125,-0.125,8.41,-0.51,4.96,-21.1875,-20.25,-19.6875,6.3125,59.875,193.938,0.105103,0.492126,-0.0925903,0.859192
0.0625,-0.5625,-0.3125,8.42,-0.53,4.93,-21.1875,-20.25,-19.6875,6.3125,59.875,193.938,0.105103,0.492126,-0.0925903,0.859192
0.0625,-0.875,-0.375,8.44,-0.53,4.95,-21.1875,-20.25,-19.6875,6.3125,59.875,193.938,0.105103,0.492249,-0.0925903,0.859131
0.125,-0.6875,-0.3125,8.45,-0.54,4.96,-21.1875,-20.25,-19.6875,6.3125,59.875,193.938,0.105103,0.492249,-0.0925903,0.85907
0.1875,-0.4375,-0.3125,8.45,-0.53,4.94,-21.1875,-20.25,-19.6875,6.3125,59.875,193.938,0.105103,0.492249,-0.0925903,0.85907
0.0625,-0.125,-0.125,8.46,-0.53,4.94,-21.1875,-20.25,-19.6875,6.3125,59.875,193.938,0.105103,0.492249,-0.0925903,0.85907
-0.0625,0.0625,0,8.47,-0.53,4.97,-21.1875,-20.25,-19.6875,6.3125,59.875,193.938,0.105103,0.492249,-0.0925903,0.85907
0,0.375,0.125,8.46,-0.54,4.93,-21.1875,-19.875,-20,6.3125,59.875,193.938,0.105103,0.492249,-0.0925903,0.85907
-0.0625,0.4375,0.375,8.46,-0.54,4.98,-21.1875,-19.875,-20,6.3125,59.875,193.938,0.105103,0.492249,-0.0925903,0.85907
0,0.375,0.1875,8.44,-0.53,4.97,-21.1875,-19.875,-20,6.3125,59.875,193.938,0.105103,0.492249,-0.0925903,0.85907
-0.0625,0.625,0.1875,8.42,-0.54,4.97,-21.1875,-19.875,-20,6.3125,59.875,193.938,0.105103,0.492249,-0.0925903,0.859131
-0.1875,0.6875,0.25,8.43,-0.53,4.95,-21.1875,-19.875,-20,6.3125,59.875,193.938,0.105103,0.492188,-0.0925903,0.859131
-0.0625,0.6875,0.3125,8.41,-0.54,4.98,-21.1875,-21.0625,-19.1875,6.3125,59.875,193.938,0.105103,0.492126,-0.0925903,0.859192
-0.0625,0.6875,0.25,8.41,-0.52,4.98,-21.1875,-21.0625,-19.1875,6.3125,59.875,193.938,0.105103,0.492065,-0.0925903,0.859192
-0.0625,0.75,0.3125,8.41,-0.54,4.95,-21.1875,-21.0625,-19.1875,6.3125,59.875,193.938,0.105103,0.492004,-0.0925293,0.859253
-0.0625,0.5625,0.0625,8.42,-0.55,4.97,-21.1875,-21.0625,-19.1875,6.3125,59.875,193.938,0.105103,0.492004,-0.0925293,0.859253
0.0625,0.125,0,8.41,-0.53,4.97,-21.1875,-21.0625,-19.1875,6.3125,59.875,193.938,0.105103,0.492004,-0.0925293,0.859253
0,-0.1875,-0.125,8.46,-0.58,4.92,-21.1875,-20.6875,-20,6.3125,59.875,193.938,0.105103,0.492004,-0.0925293,0.859253
0,-0.4375,-0.125,8.46,-0.53,4.96,-21.1875,-20.6875,-20,6.3125,59.875,193.938,0.105103,0.492004,-0.0925293,0.859253
0.3125,-0.25,0,8.57,-0.52,4.9,-21.1875,-20.6875,-20,6.3125,59.875,193.938,0.105103,0.492004,-0.0925293,0.859253
0.4375,0.1875,0.125,8.65,-0.53,4.87,-21.1875,-20.6875,-20,6.3125,59.875,193.938,0.105103,0.492004,-0.0925293,0.859253
0.25,1.375,0.625,8.67,-0.51,4.9,-21.1875,-20.6875,-20,6.3125,59.8125,193.938,0.105103,0.491943,-0.0925903,0.859314
0.125,3.25,1.6875,8.78,-0.44,4.93,-20.75,-19.875,-20,6.375,59.8125,193.875,0.10498,0.491638,-0.0925903,0.859436
0.25,5.875,2.75,8.76,-0.44,4.98,-20.75,-19.875,-20,6.375,59.75,193.875,0.104858,0.491211,-0.0926514,0.859741
-0.0625,9.125,4.125,8.69,-0.47,5.01,-20.75,-19.875,-20,6.4375,59.625,193.812,0.104614,0.490479,-0.0928345,0.860107
-0.9375,12.25,5.125,8.48,-0.49,5.02,-20.75,-19.875,-20,6.5625,59.5,193.812,0.104431,0.489563,-0.0930786,0.860657
-1.625,14.5,5.4375,8.27,-0.59,5,-20.75,-19.875,-20,6.625,59.375,193.75,0.104248,0.488464,-0.0933228,0.861328
-2.375,14.75,5.0625,8.49,-0.58,4.92,-20.5,-20.25,-18,6.6875,59.25,193.75,0.104126,0.487305,-0.0936279,0.861938
-3.0625,14,5.0625,8.31,-0.71,4.85,-20.5,-20.25,-18,6.8125,59.0625,193.688,0.103943,0.486206,-0.0938721,0.862549
-2.375,13.375,5.1875,8.45,-0.66,4.99,-20.5,-20.25,-18,6.875,58.9375,193.688,0.103699,0.485168,-0.0940552,0.863098
-0.9375,14.5,4.4375,8.4,-0.59,5.23,-20.5,-20.25,-18,6.875,58.8125,193.625,0.103516,0.48407,-0.0941162,0.86377
-0.3125,16.25,4.125,8.17,-0.49,5.24,-20.5,-20.25,-18,6.9375,58.625,193.625,0.103333,0.482849,-0.0941772,0.864441
-0.25,16.25,3.875,8.3,-0.54,5.42,-21.1875,-21.0625,-19.6875,7,58.5,193.562,0.10321,0.481567,-0.0942383,0.865173
-1.25,16.9375,4.125,7.95,-0.69,5.26,-21.1875,-21.0625,-19.6875,7,58.3125,193.562,0.103149,0.480408,-0.0944214,0.865845
-2.25,12.25,4.625,7.96,-0.74,5.14,-21.1875,-21.0625,-19.6875,7.125,58.1875,193.5,0.102966,0.479431,-0.0946655,0.866333
-2.0625,8.4375,3.875,8.27,-0.73,5.06,-21.1875,-21.0625,-19.6875,7.125,58.125,193.5,0.102844,0.47876,-0.0949097,0.866699
-1.6875,6.25,2.9375,8.47,-0.7,5.08,-21.1875,-21.0625,-19.6875,7.1875,58.0625,193.5,0.102722,0.478271,-0.0950317,0.867004
-0.9375,6.25,2.9375,8.47,-0.7,5.35,-22.25,-19.875,-20.875,7.25,58,193.438,0.102539,0.477722,-0.0950928,0.86731
0.0625,7.25,2.875,8.02,-0.71,5.27,-22.25,-19.875,-20.875,7.25,57.875,193.438,0.102417,0.477112,-0.0950928,0.867676
0.25,6.125,1,7.92,-0.71,5.3,-22.25,-19.875,-20.875,7.25,57.8125,193.438,0.102417,0.476562,-0.0950928,0.867981
0.125,3.125,0.3125,8.2,-0.65,5.26,-22.25,-19.875,-20.875,7.25,57.8125,193.438,0.102417,0.476257,-0.0950928,0.868103
0,-0.0625,0,8.68,-0.38,5.67,-22.25,-19.875,-20.875,7.25,57.8125,193.438,0.102478,0.476196,-0.0950317,0.868164
0.375,-0.125,0.0625,10.06,0.4,6.01,-21.1875,-19.5625,-20,7.25,57.8125,193.438,0.102478,0.476196,-0.0950317,0.868164
-0.25,11.125,0.9375,9.62,-0.18,4.59,-21.1875,-19.5625,-20,7.3125,57.6875,193.438,0.102783,0.475342,-0.09552,0.86853
-7.375,27.4375,3.0625,8.24,-0.3,5.33,-21.1875,-19.5625,-20,7.4375,57.4375,193.5,0.103271,0.473145,-0.0963135,0.869568
-12.0625,42.8125,3.9375,7.93,-0.42,5.72,-21.1875,-19.5625,-20,7.5,57,193.562,0.103821,0.46991,-0.0969849,0.871216
-12.5,53.5,-1.4375,7.83,-0.83,5.95,-21.1875,-19.5625,-20,7.5,56.5,193.688,0.104919,0.46582,-0.0975342,0.87323
-14.8125,53.5,-1.4375,7.83,-0.83,5.95,-20.75,-19.875,-20.875,7.4375,55.875,193.938,0.107056,0.460815,-0.0980835,0.875549
-17.8125,66.4375,-7.9375,7.64,-1.05,6.46,-20.75,-19.875,-20.875,7.375,55.1875,194.188,0.109558,0.4552,-0.0985718,0.878113
-22.75,80.125,-19.9375,7.2,-0.37,6.22,-20.75,-19.875,-20.875,7.1875,54.4375,194.562,0.112793,0.449158,-0.0991211,0.880737
-27.5625,82.25,-26.5,7.79,-0.5,6.37,-20.75,-19.875,-20.875,7,53.625,195,0.116638,0.442932,-0.0996704,0.883301
-32,84.4375,-31.25,8.43,-0.77,5.73,-20.75,-19.875,-20.875,6.8125,52.875,195.5,0.121033,0.436523,-0.100342,0.885803
-35.875,84.4375,-31.25,8.43,-0.77,5.73,-20.75,-20.25,-22.0625,6.6875,52.0625,196.188,0.126404,0.429688,-0.101562,0.888306
-37.9375,88.5,-31.375,8.68,-0.79,5.41,-19,-20.25,-22.0625,6.5625,51.25,196.625,0.130615,0.422668,-0.102356,0.89093
-37.125,94.3125,-21.5,9.2,-0.91,5.32,-19,-20.25,-22.0625,6.5,50.3125,197.062,0.134216,0.415405,-0.103027,0.893799
-32.75,97.5625,-12.3125,9.07,-1.03,5.22,-19,-20.25,-22.0625,6.5,49.4375,197.312,0.136963,0.407776,-0.103577,0.89679
-27.5,101.75,-2.375,9.1,-1.04,5.44,-19,-20.25,-22.0625,6.5625,48.4375,197.5,0.138794,0.399841,-0.103943,0.900024
-22.0625,101.75,-2.375,9.1,-1.04,5.44,-19,-19.875,-24.1875,6.6875,47.375,197.625,0.140442,0.391357,-0.104492,0.903442
-15.625,107.125,7.625,8.55,-1.08,5.55,-17.5,-19.875,-24.1875,6.8125,46.3125,197.562,0.140564,0.382446,-0.104431,0.907227
-9.6875,116.938,22.125,6.78,-1.47,5.6,-17.5,-19.875,-24.1875,6.875,45.125,197.438,0.139954,0.37323,-0.104004,0.911194
-3.125,118.5,25.125,6.18,-1.53,5.67,-17.5,-19.875,-24.1875,6.9375,44,197.25,0.138916,0.363892,-0.102966,0.915222
5.25,119.25,24.3125,5.79,-1.5,5.95,-17.5,-19.875,-24.1875,6.875,42.8125,197,0.137634,0.354614,-0.101196,0.91925
14.1875,119.25,24.3125,5.79,-1.5,5.95,-17.5,-19.875,-26.5625,6.625,41.5625,196.875,0.137085,0.345093,-0.0981445,0.923279
28.1875,124.438,14.375,5.61,-1.15,6.91,-16.375,-19.1875,-26.5625,6.375,40.375,196.688,0.136169,0.335571,-0.0949097,0.927307
28.1875,128.062,9.3125,5.77,-0.89,7.54,-16.375,-19.1875,-26.5625,6,39.125,196.562,0.135559,0.325806,-0.0912476,0.931213
30.8125,129.938,6.3125,5.56,-0.75,7.55,-16.375,-19.1875,-26.5625,5.625,37.875,196.438,0.135193,0.315857,-0.0874634,0.935059
31.625,129.438,5.75,5.72,-0.53,8.07,-16.375,-19.1875,-26.5625,5.3125,36.625,196.312,0.134827,0.305969,-0.0836182,0.938721
31.6875,129.438,5.75,5.72,-0.53,8.07,-16.375,-19.1875,-26.5625,4.9375,35.375,196.5,0.136841,0.296082,-0.0806885,0.941833
31.25,125.5,6.75,5.5,-0.37,8.22,-13,-19.5625,-29.5,4.6875,34.1875,196.375,0.136292,0.286499,-0.0770874,0.94519
29.8125,123.938,9.4375,5.25,-0.47,8.39,-13,-19.5625,-29.5,4.375,33,196.25,0.135681,0.276917,-0.0737915,0.948425
26.5625,122.5,9.8125,5.31,-0.64,8.18,-13,-19.5625,-29.5,4.1875,31.8125,196.125,0.135132,0.267212,-0.0707397,0.951477
23.125,123.5,9.25,5.17,-0.78,7.76,-13,-19.5625,-29.5,4,30.5625,196,0.134644,0.257141,-0.0678101,0.954529
20.4375,127.625,9.25,5.17,-0.78,7.76,-13,-19.5625,-29.5,3.75,29.1875,196,0.13501,0.245605,-0.0645142,0.957764
24.75,145.312,7.375,5.26,-0.85,7.47,-11.5625,-19.6875,-30.6875,3.5,27.75,196,0.134705,0.23407,-0.0609741,0.960938
24.75,145.312,7.3125,5.35,-1.21,6.93,-11.5625,-19.6875,-30.6875,3.1875,26.25,195.812,0.134277,0.221497,-0.0567627,0.964172
31.5,157.938,10.125,4.97,-1.19,6.63,-11.5625,-19.6875,-30.6875,2.75,24.5625,195.688,0.133484,0.20813,-0.0516968,0.96759
40.5625,169.438,14.6875,4.37,-1.12,6.46,-11.5625,-19.6875,-30.6875,2.3125,22.8125,195.438,0.132141,0.193909,-0.0456543,0.971008
52.375,179.875,14.6875,4.37,-1.12,6.46,-11.5625,-19.875,-30.5625,1.5625,20.9375,195.062,0.129272,0.178772,-0.0372314,0.97467
81.4375,194.062,27.3125,4,-1.09,6.47,-8.6875,-19.875,-30.5625,0.875,19.0625,194.688,0.126404,0.163574,-0.0288086,0.977966
81.4375,194.062,34.3125,3.77,-0.66,7.81,-8.6875,-19.875,-30.5625,0.0625,17.125,194.25,0.122681,0.148071,-0.019165,0.98114
97.1875,198.812,45.4375,1.18,2.97,9.33,-8.6875,-19.875,-30.5625,-0.5625,14.625,193.688,0.118225,0.127502,-0.0100708,0.984741
83.8125,257.438,42.3125,3.19,3.44,12.23,-8.6875,-19.875,-30.5625,-0.9375,12,193.188,0.11438,0.105225,-0.00372314,0.987854
49.75,272.812,42.3125,3.19,3.44,12.23,-8.6875,-19.875,-31.75,-1.125,9.375,192.812,0.111206,0.0824585,0.000915527,0.990356
27.25,275.625,35.875,1.07,2.07,12.64,-3.5625,-22.1875,-31.75,-1.375,6.6875,192.375,0.107971,0.0596313,0.0055542,0.992371
27.25,275.625,22.0625,-5.61,0.19,9.4,-3.5625,-22.1875,-31.75,-1.5,4.375,192.125,0.105896,0.0394287,0.00927734,0.99353
19.5,243.562,-1.8125,-4.98,0.38,6.67,-3.5625,-22.1875,-31.75,-1.8125,3.1875,192.125,0.105835,0.0296631,0.0128174,0.993835
29.4375,119.062,-4.5,-3.91,0.67,7.91,-3.5625,-22.1875,-31.75,-2.0625,2.5,192.125,0.106079,0.0236206,0.0158691,0.993958
27.75,74.75,-4.5,-3.91,0.67,7.91,-3.5625,-22.1875,-31.75,-2.25,2,192.188,0.106628,0.0194702,0.0177002,0.993958
16,51,-8.0625,-0.91,1.2,13.87,0.25,-22.5625,-32.5,-2.1875,1.6875,192.312,0.107422,0.0170898,0.0177002,0.993896
-3.125,27.8125,-11.75,-0.73,0.63,8.62,0.25,-22.5625,-32.5,-2.125,1.4375,192.438,0.108398,0.0149536,0.0170898,0.993835
-9.875,24.125,-17.5,-0.95,0.37,8.95,0.25,-22.5625,-32.5,-2.0625,1.25,192.562,0.109863,0.0128784,0.0170288,0.993713
-3.375,24.0625,-25.0625,-0.94,0.09,9.34,0.25,-22.5625,-32.5,-2.125,1,192.812,0.111877,0.0112305,0.0177612,0.993469
5.8125,20.125,-25.0625,-0.94,0.09,9.34,0.25,-22.5625,-32.5,-2.25,1,192.812,0.114502,0.0100098,0.0186768,0.993164
8.875,14.6875,-31.625,-1.03,0.1,9.64,2.25,-23.6875,-31.5,-2.3125,0.875,193.125,0.117493,0.00939941,0.0194702,0.992859
8.625,7.5,-34.625,0.01,0.17,9.69,2.25,-23.6875,-31.5,-2.375,0.75,193.812,0.120361,0.00939941,0.0202026,0.992493
8.1875,0.6875,-29,0.58,0.21,9.81,2.25,-23.6875,-31.5,-2.5,0.8125,194.062,0.122803,0.00976562,0.020813,0.992188
7.4375,-4.375,-19.5625,1.22,0.24,10.22,2.25,-23.6875,-31.5,-2.5,0.875,194.25,0.124451,0.0105591,0.0211792,0.991943
5.1875,-9.375,-19.5625,1.22,0.24,10.22,2.25,-23.6875,-31.5,-2.5,0.875,194.25,0.124451,0.0115356,0.0211182,0.991821
1.0625,-11.5,-7.9375,1.5,0.21,10.39,3.25,-24,-30.75,-2.5625,1,194.375,0.125183,0.0123291,0.020874,0.991882
-1.625,-9.3125,11.375,1.06,0.18,9.83,3.25,-24,-30.75,-2.5,1.125,194.188,0.123962,0.0126343,0.0206909,0.992004
-1.625,-3.9375,15.8125,0.79,0.29,9.9,3.25,-24,-30.75,-2.5,1.0625,194.062,0.12262,0.0123901,0.020752,0.992188
-0.1875,3.625,16.9375,0.61,0.52,10.03,3.25,-24,-30.75,-2.5,1,193.875,0.121216,0.0115356,0.020874,0.992371
0.625,10.5,16.9375,0.61,0.52,10.03,3.25,-24,-30.75,-2.5,0.8125,193.875,0.119812,0.0100098,0.0210571,0.992554
0.1875,18.375,16.125,0.3,0.71,10.04,3.875,-24.25,-30.75,-2.5,0.5625,193.75,0.118591,0.00775146,0.0213013,0.992676
-0.375,27.625,11.375,0.26,0.78,10.24,3.875,-24.25,-30.75,-2.5,0.1875,193.5,0.117554,0.00476074,0.0215454,0.992798
-1.5,35.75,8.6875,-0.16,0.71,10.35,3.875,-24.25,-30.75,-2.4375,-0.125,193.375,0.11676,0.00115967,0.0216064,0.99292
-4.125,42.5,6.0625,-0.35,0.68,10.19,3.875,-24.25,-30.75,-2.375,-0.5625,193.312,0.11615,-0.00292969,0.0214844,0.992981
-7.3125,47.875,6.0625,-0.35,0.68,10.19,3.875,-24.25,-30.75,-2.375,-0.5625,193.312,0.115723,-0.00732422,0.0212402,0.993042
-8.875,51.3125,3.8125,-0.46,0.54,9.99,3.5,-23.5625,-31.5,-2.3125,-1.0625,193.25,0.115479,-0.0118408,0.0210571,0.993042
-8.1875,53.125,0.375,-0.96,0.29,9.63,3.5,-23.5625,-31.5,-2.125,-2.125,193.25,0.115356,-0.0164795,0.0210571,0.992981
-6.3125,54.125,-1.125,-1.26,0.29,9.88,3.5,-23.5625,-31.5,-2.125,-2.625,193.25,0.115356,-0.020874,0.0211182,0.992859
-5.5,51.875,-2.5,-1.44,0.29,10.08,3.5,-23.5625,-31.5,-2,-3.0625,193.25,0.115479,-0.0248413,0.0209351,0.992798
-7,46.5,-2.5,-1.44,0.29,10.08,3.5,-23.5625,-31.5,-1.9375,-3.0625,193.25,0.115601,-0.0282593,0.0205688,0.992676
-9.1875,39.375,-3.125,-1.49,0.21,9.64,5,-23.5625,-30.375,-1.9375,-3.4375,193.25,0.115601,-0.0282593,0.0205688,0.992554
-9.6875,31.125,-3.125,-1.34,-0.06,9.26,5,-23.5625,-30.375,-1.75,-4,193.312,0.116089,-0.032959,0.0195312,0.992493
-8.625,22.9375,-1.0625,-1.17,-0.12,8.75,5,-23.5625,-30.375,-1.6875,-4.125,193.312,0.116089,-0.0341797,0.0192261,0.992432
-5.1875,13.875,2.125,-1.29,-0.3,8.87,5,-23.5625,-30.375,-1.6875,-4.1875,193.312,0.115906,-0.0346069,0.0192871,0.992493
-0.5625,4.625,2.125,-1.29,-0.3,8.87,5,-23.5625,-30.375,-1.6875,-4.1875,193.312,0.115906,-0.0341797,0.0195923,0.992554
3.875,-4,5.5625,-1.08,-0.36,8.92,4.875,-24,-29.875,-1.75,-4.125,193.25,0.114746,-0.0333252,0.0202026,0.992615
8.3125,-9.5625,9.4375,-0.46,-0.3,9.17,4.875,-24,-29.875,-1.9375,-3.9375,193.062,0.113647,-0.0321655,0.0212402,0.992798
12.8125,-11.5625,13.0625,-0.72,0.17,10.63,4.875,-24,-29.875,-2.125,-3.8125,192.875,0.112366,-0.0311279,0.0224609,0.99292
15.375,-10.625,16.25,-0.99,0.52,10.62,4.875,-24,-29.875,-2.25,-3.6875,192.75,0.110962,-0.0301514,0.0233765,0.993103
11.1875,-9.625,17.375,-0.99,0.52,10.62,4.875,-24,-29.875,-2.25,-3.6875,192.75,0.110962,-0.0301514,0.0233765,0.993103
5.625,-10.5625,16.5625,-1.22,0.85,10.27,5.25,-23.1875,-31,-2.3125,-3.5625,192.562,0.109619,-0.0291748,0.0237427,0.993408
2,-14.9375,14.9375,-1.43,0.98,10.07,5.25,-23.1875,-31,-2.3125,-3.25,192.312,0.1073,-0.026062,0.0234985,0.993591
-1.875,-21.625,13.5625,-1.24,0.91,10.01,5.25,-23.1875,-31,-2.25,-2.9375,192.188,0.106262,-0.0236816,0.0227661,0.993774
-6.0625,-29,12.9375,-1.08,0.75,9.8,5.25,-23.1875,-31,-2.1875,-2.625,192.062,0.105225,-0.020813,0.0217285,0.994019
-8.75,-34.1875,12.875,-1.08,0.75,9.8,5.25,-23.1875,-31,-2.1875,-2.625,192.062,0.105225,-0.0177612,0.0206909,0.994507
-8.375,-37.875,12.5,-0.95,0.6,9.57,4.875,-24.25,-30.5625,-2.125,-2.25,191.625,0.101257,-0.0146484,0.0199585,0.994629
-4.5,-37.625,10.75,-1.34,0.43,9.6,4.875,-24.25,-30.5625,-2.0625,-1.5,191.438,0.0999146,-0.0113525,0.0197144,0.994751
0.875,-38.375,6.4375,-1.14,0.14,10.2,4.875,-24.25,-30.5625,-2.125,-1.125,191.438,0.0999146,-0.00793457,0.0196533,0.994751
3.3125,-40.3125,0.9375,-0.66,0.01,10.34,4.875,-24.25,-30.5625,-2.125,-0.6875,191.5,0.100281,-0.00421143,0.0195312,0.994751
2.3125,-44.25,-3.6875,-0.66,0.01,10.34,4.875,-24.25,-30.5625,-2.125,-0.6875,191.5,0.100281,-0.000183105,0.019043,0.995056
-0.625,-48.8125,-4.5625,-0.15,0.31,10.78,3.375,-24,-29.375,-2.0625,0.25,191.188,0.0975952,0.00421143,0.0181274,0.995056
-5.3125,-52.75,-0.6875,-0.24,0.88,11.16,3.375,-24,-29.375,-1.9375,0.8125,191.125,0.097229,0.0090332,0.0165405,0.995056
-13.0625,-58.875,5.4375,-0.22,0.95,11.32,3.375,-24,-29.375,-1.75,1.5,191,0.0962524,0.0147095,0.0140991,0.995178
-22.625,-69.375,12.875,-0.04,0.93,11.71,3.375,-24,-29.375,-1.4375,2.3125,190.812,0.0945435,0.0216064,0.0105591,0.995239
-33.1875,-84.875,22,-0.04,0.93,11.71,3.375,-24,-29.375,-1.4375,2.3125,190.812,0.0945435,0.0216064,0.0105591,0.995239
-43.125,-100.312,33.375,0.06,0.89,11.76,2.5625,-24.25,-30.1875,-1,3.3125,190.25,0.0893555,0.0297241,0.00616455,0.995544
-46.8125,-115.875,48.6875,2.7,-0.81,9.85,2.5625,-24.25,-30.1875,0,5.75,189.125,0.0797729,0.0504761,-0.00366211,0.995544
-43.3125,-138.5,69.1875,3.75,-1.24,9.65,2.5625,-24.25,-30.1875,0.375,7.375,188.25,0.0717773,0.0640869,-0.00805664,0.9953
-33.875,-164.875,95.5,2.51,-0.86,10.65,2.5625,-24.25,-30.1875,0.75,9.0625,187.062,0.0616455,0.0786743,-0.0114136,0.994934
-20.0625,-176.438,120.25,2.51,-0.86,10.65,2.5625,-24.25,-30.1875,0.75,9.0625,187.062,0.0616455,0.0786743,-0.0114136,0.994934
-6,-179.75,133.5,1.38,-0.49,11.43,0,-23.1875,-30.5625,1,10.75,185.75,0.050293,0.0936279,-0.0137939,0.994263
4,-179.812,134,1.18,0.07,13.1,0,-23.1875,-30.5625,1.4375,14.125,183.188,0.027832,0.122864,-0.0161743,0.991882
9.8125,-172.312,126.625,0.94,0.23,12.84,0,-23.1875,-30.5625,1.625,15.625,182.062,0.0179443,0.135803,-0.0166016,0.990417
12.875,-156.438,114.25,0.8,0.13,12.37,0,-23.1875,-30.5625,1.75,16.9375,181.062,0.00939941,0.147156,-0.0162964,0.988953
19.6875,-136.938,97.0625,0.8,0.13,12.37,0,-23.1875,-30.5625,1.75,16.9375,181.062,0.00939941,0.147156,-0.0162964,0.987488
31.3125,-116.688,77.375,0.7,0.07,12.21,-5.5625,-22.5,-31.375,1.6875,18,180.062,0.000671387,0.15686,-0.0144653,0.986206
45.5,-98.4375,58,2.16,0.47,12.09,-5.5625,-22.5,-31.375,1,19.75,178.875,-0.00952148,0.171875,-0.00695801,0.985046
60.625,-83.6875,43.8125,2.52,0.7,12.22,-5.5625,-22.5,-31.375,0.375,20.4375,178.375,-0.0136108,0.177917,-0.0010376,0.983948
76.5625,-73.1875,35.5625,2.68,0.91,12.27,-5.5625,-22.5,-31.375,-0.3125,21.125,177.938,-0.0176392,0.18335,0.00628662,0.982849
92.4375,-66.75,31.3125,2.68,0.91,12.27,-5.5625,-22.5,-31.375,-0.3125,21.125,177.938,-0.0176392,0.18335,0.00628662,0.982849
108.188,-63.9375,29.375,3.07,0.76,12.52,-11.1875,-22,-27.75,-1.25,21.75,177.125,-0.0241699,0.188416,0.0153809,0.981689
122.625,-66.375,28.875,3.04,0.72,12.78,-11.1875,-22,-27.75,-3.5625,23.125,176.125,-0.0328979,0.199585,0.0359497,0.978699
133.5,-73.9375,29.5,3.72,0.99,12.78,-11.1875,-22,-27.75,-4.8125,23.875,175.562,-0.0375977,0.205811,0.0473022,0.976746
141,-79.6875,31.5,4.11,1.44,12.91,-11.1875,-22,-27.75,-6.0625,24.6875,174.938,-0.0427246,0.212219,0.05896,0.974487
145.812,-81.4375,35.1875,4.11,1.44,12.91,-11.1875,-22,-27.75,-6.0625,24.6875,174.938,-0.0427246,0.212219,0.05896,0.974487
147.438,-81.5,39.4375,4.17,1.61,13.08,-12.25,-23.5,-24.875,-7.375,25.5625,174.25,-0.0484619,0.218567,0.0707397,0.972046
146.312,-80.125,44.1875,4.18,2.3,13.06,-12.25,-23.5,-24.875,-9.875,27.1875,172.812,-0.0603638,0.230713,0.0934448,0.966614
143.375,-77,47.4375,3.55,2.61,12.79,-12.25,-23.5,-24.875,-11.0625,28,172.062,-0.0664673,0.236389,0.104309,0.963745
140.375,-73.875,48.375,3.35,2.91,12.68,-12.25,-23.5,-24.875,-12.25,28.75,171.312,-0.0724487,0.241821,0.115051,0.960754
138.625,-71.25,47.4375,3.35,2.91,12.68,-12.25,-23.5,-24.875,-12.25,28.75,171.312,-0.0724487,0.241821,0.115051,0.960754
138.938,-67.875,44.75,3.09,2.99,12.67,-14.25,-25,-19.875,-13.4375,29.5,170.625,-0.0782471,0.246887,0.125793,0.957642
141.125,-63.125,40.3125,2.47,3.27,11.54,-14.25,-25,-19.875,-15.9375,30.8125,169.25,-0.0889893,0.255676,0.148254,0.951172
145.875,-60.1875,34.625,2.58,3.5,10.93,-14.25,-25,-19.875,-17.375,31.4375,168.625,-0.0938721,0.259766,0.160339,0.947632
152.875,-60.6875,29.375,2.82,3.93,9.85,-14.25,-25,-19.875,-18.9375,32.125,168,-0.0986938,0.263733,0.173157,0.943787
161.938,-61.625,26.375,2.82,3.93,9.85,-14.25,-25,-19.875,-18.9375,32.125,168,-0.0986938,0.263733,0.173157,0.943787
172.188,-61.4375,25.6875,2.89,4.1,9.33,-16.25,-26.5625,-15.75,-20.5625,32.75,167.375,-0.103699,0.267517,0.186829,0.939575
182.875,-59.6875,27.3125,2.98,4.51,8.73,-16.25,-26.5625,-15.75,-24.125,34,165.875,-0.114929,0.274292,0.216125,0.929932
191.938,-57.1875,31.4375,2.92,4.76,7.84,-16.25,-26.5625,-15.75,-25.9375,34.625,165,-0.121582,0.277222,0.231384,0.924561
199.5,-52.9375,38.625,3.09,4.76,7.01,-16.25,-26.5625,-15.75,-27.8125,35.25,163.938,-0.129211,0.279602,0.246826,0.918762
206.562,-46.8125,48.0625,3.23,4.76,7.01,-16.25,-26.5625,-15.75,-27.8125,35.25,163.938,-0.129211,0.279602,0.246826,0.918762
213.438,-41.4375,60.1875,3.49,4.73,6.55,-17.875,-28.5625,-10.375,-29.6875,35.875,162.75,-0.138062,0.281738,0.26239,0.912537
218.938,-39.25,76.0625,3.59,4.41,5.27,-17.875,-28.5625,-10.375,-33.1875,37.4375,159.812,-0.159851,0.286499,0.292969,0.898071
221.062,-42.125,96.0625,4.27,4.35,5.14,-17.875,-28.5625,-10.375,-34.75,38.5,157.938,-0.173035,0.290222,0.307251,0.889587
218.938,-50.1875,120.625,4.49,4.23,4.86,-17.875,-28.5625,-10.375,-36.125,39.8125,155.875,-0.187805,0.295532,0.320435,0.880188
212.875,-61.5,148.812,4.57,4.23,4.86,-17.875,-28.5625,-10.375,-36.125,39.8125,155.875,-0.187805,0.295532,0.320435,0.880188
203.75,-71.75,177.188,3.87,4.28,4.22,-19.5,-30.1875,-3.375,-37.25,41.375,153.562,-0.204041,0.302368,0.332153,0.869812
192.625,-82.3125,202.438,3.32,4.33,3.35,-19.5,-30.1875,-3.375,-38.8125,45.25,148.375,-0.239624,0.32019,0.351379,0.846497
180.938,-90.6875,222,2.6,4.13,2.63,-19.5,-30.1875,-3.375,-39.25,47.375,145.562,-0.258118,0.330383,0.35907,0.833801
171.562,-95.25,234.75,2.1,3.96,2.65,-19.5,-30.1875,-3.375,-39.4375,49.5625,142.688,-0.276855,0.340698,0.365784,0.820618
163.812,-94.3125,243.125,2.21,3.96,2.65,-19.5,-30.1875,-3.375,-39.4375,49.5625,142.688,-0.276855,0.340698,0.365784,0.820618
154.375,-85.4375,249.688,2.16,3.89,2.82,-22.1875,-28.375,3.875,-39.25,51.75,139.688,-0.295898,0.350647,0.371155,0.807312
141.875,-71.25,254.062,2.07,3.56,2.68,-22.1875,-28.375,3.875,-37.625,55.8125,133.625,-0.334229,0.368164,0.377014,0.781433
126.125,-55.125,255.812,1.36,3.07,2.27,-22.1875,-28.375,3.875,-36.0625,57.5625,130.688,-0.353088,0.375488,0.37738,0.769348
109.938,-38.125,253.375,1.03,2.86,2.26,-22.1875,-28.375,3.875,-33.9375,59.0625,127.75,-0.37146,0.381592,0.376221,0.75824
95.9375,-18.0625,246.062,1.5,2.86,2.26,-22.1875,-28.375,3.875,-33.9375,59.0625,127.75,-0.37146,0.381592,0.376221,0.75824
83.0625,2.125,238.75,1.45,2.69,1.92,-26.25,-22.5625,8,-31.4375,60.3125,124.938,-0.389404,0.386353,0.373718,0.747986
69.6875,18.75,233.812,2.03,2.21,2.98,-26.25,-22.5625,8,-24.9375,62,119.625,-0.424133,0.393433,0.36438,0.729736
55.0625,32.3125,232.188,2.04,1.72,3.06,-26.25,-22.5625,8,-21.125,62.5,117.125,-0.440918,0.396484,0.357605,0.721436
39.5625,40.875,231.75,2.04,1.3,3,-26.25,-22.5625,8,-17,62.875,114.688,-0.457153,0.39978,0.349609,0.71344
24.75,44.4375,231.688,1.9,1.3,3,-26.25,-22.5625,8,-17,62.875,114.688,-0.457153,0.39978,0.349609,0.71344
12.125,40.5,229.312,1.58,0.59,2.75,-29,-16.0625,9.6875,-12.6875,63.0625,112.375,-0.472473,0.403564,0.341003,0.705444
2.3125,30.875,224.875,1.65,0.2,2.56,-29,-16.0625,9.6875,-4.125,63.1875,108.062,-0.5,0.413147,0.323425,0.689026
-4.5,20.25,219.188,1.96,-0.86,2.76,-29,-16.0625,9.6875,0,63.125,106,-0.512268,0.418579,0.315002,0.680542
-8.6875,11.4375,212.812,2.82,-1.14,3.09,-29,-16.0625,9.6875,4.0625,63,104.062,-0.523926,0.424194,0.306763,0.671936
-10.9375,4.9375,207.75,3.09,-1.14,3.09,-29,-16.0625,9.6875,4.0625,63,104.062,-0.523926,0.424194,0.306763,0.671936
-12.5,-0.9375,204.062,3.04,-1.39,3.36,-32.0625,-10.0625,9,8,62.8125,102.188,-0.534912,0.430054,0.298706,0.663086
-13.5625,-9.6875,199.312,3.07,-3.59,3.06,-32.0625,-10.0625,9,15.5625,62.3125,98.5,-0.554871,0.442505,0.28418,0.644653
-12.625,-19.3125,192,3.41,-4.21,2.69,-32.0625,-10.0625,9,18.9375,62.0625,96.8125,-0.563782,0.448608,0.278198,0.635193
-7.375,-26.5,182.062,3.81,-4.54,2.37,-32.0625,-10.0625,9,22.125,61.75,95.0625,-0.572327,0.454285,0.273315,0.625549
2.875,-33.375,173.125,4.46,-4.54,2.37,-32.0625,-10.0625,9,22.125,61.75,95.0625,-0.572327,0.454285,0.273315,0.625549
15.875,-39.8125,170.812,6.24,-5.66,2.52,-32,-5,7.6875,27.8125,61,91.375,-0.590271,0.463989,0.265991,0.604614
30.8125,-38,175.812,7.37,-6,2.64,-32,-5,7.6875,30.375,60.375,89.25,-0.601013,0.467102,0.262268,0.59314
46.5625,-25.25,187.188,7.97,-6.18,3.1,-32,-5,7.6875,32.6875,59.4375,86.9375,-0.613037,0.46875,0.257935,0.581299
61.375,-8.875,198.125,7.6,-6.64,4.8,-32,-5,7.6875,34.625,58.3125,84.5625,-0.625732,0.468933,0.253174,0.56958
71.6875,7.1875,199.5,5.94,-6.64,4.8,-32,-5,7.6875,34.625,58.3125,84.5625,-0.625732,0.468933,0.253174,0.56958
78.0625,24.0625,186.938,5.22,-7,5.56,-33.0625,-0.0625,7.6875,36,57.0625,82.375,-0.638245,0.46759,0.24823,0.558899
81.9375,40.3125,160.938,5.73,-7.17,6.39,-33.0625,-0.0625,7.6875,36.875,54.5625,78.875,-0.660461,0.4599,0.23877,0.543396
82.4375,60.875,133.188,6.95,-7.45,7.28,-33.0625,-0.0625,7.6875,36.625,53.3125,77.5625,-0.670227,0.453857,0.233582,0.538757
80.25,82,109.938,9.16,-7.6,7.13,-33.0625,-0.0625,7.6875,36.125,52,76.5,-0.67926,0.446777,0.227966,0.535706
77.6875,97.6875,92.6875,10.08,-7.6,7.13,-33.0625,-0.0625,7.6875,36.125,52,76.5,-0.67926,0.446777,0.227966,0.535706
76.6875,104.5,82,10.65,-7.72,6.8,-31.875,5.0625,7.6875,35.4375,50.75,75.5625,-0.687866,0.439209,0.222351,0.533386
78.5,103.562,76.375,11.83,-7.93,6.7,-31.875,5.0625,7.6875,34,48.25,73.8125,-0.704224,0.423523,0.211975,0.52887
80.6875,99.5625,76.5,11.92,-8.17,7.55,-31.875,5.0625,7.6875,33.375,47.0625,72.875,-0.71228,0.415955,0.207153,0.526001
80.4375,93.25,79.8125,12.55,-8.22,8.04,-31.875,5.0625,7.6875,32.875,45.9375,71.875,-0.720215,0.409119,0.202393,0.522522
75.9375,84.875,85.125,12.89,-8.22,8.04,-31.875,5.0625,7.6875,32.875,45.9375,71.875,-0.720215,0.409119,0.202393,0.522522
67.4375,73.25,88.3125,13.03,-8,8.64,-32.0625,8,3.1875,32.5625,44.875,70.9375,-0.7276,0.403259,0.197876,0.518494
55.875,61,88.125,12.85,-7.72,8.86,-32.0625,8,3.1875,32.4375,43.0625,69.125,-0.740173,0.395081,0.189453,0.510071
42.125,50.6875,82.3125,12.06,-7.45,9.26,-32.0625,8,3.1875,32.4375,42.375,68.5,-0.744507,0.392578,0.185791,0.50708
26.875,43.25,63.9375,11.2,-6.94,9.08,-32.0625,8,3.1875,32.375,41.875,68.1875,-0.747131,0.390625,0.18219,0.505981
10.0625,43.625,37.75,12.21,-7.09,9.08,-32.0625,8,3.1875,32.375,41.875,68.1875,-0.747131,0.390625,0.18219,0.505981
-3.0625,48,16.375,12.79,-7.44,8.31,-30.875,8.5625,1.5625,32.3125,41.375,68.125,-0.748474,0.389038,0.178528,0.506592
-8.8125,47.5625,4.125,13.39,-7.63,7.76,-30.875,8.5625,1.5625,32.125,40.9375,68.25,-0.749329,0.386597,0.172119,0.509399
-9.6875,38.375,-0.25,13.62,-7.22,7.93,-30.875,8.5625,1.5625,32.125,40.5,68.5,-0.749268,0.38623,0.17041,0.510315
-9.5625,21.4375,-1,13.16,-6.83,8.28,-30.875,8.5625,1.5625,32.25,40.5,68.5625,-0.748779,0.386902,0.169861,0.510681
-11.9375,1.6875,-2.375,12.37,-6.48,8.28,-30.875,8.5625,1.5625,32.25,40.5,68.5625,-0.748779,0.386902,0.169861,0.510681
-17.5625,-19,-8.8125,11.57,-6.16,8.67,-30.25,11.375,-0.875,32.4375,40.6875,68.6875,-0.747559,0.388733,0.170593,0.510864
-23.125,-38.25,-21,10.64,-5.93,7.89,-30.25,11.375,-0.875,32.9375,41.75,69.1875,-0.742126,0.394897,0.176392,0.512024
-23.6875,-56.125,-36.25,10.49,-5.71,7.11,-30.25,11.375,-0.875,33.0625,42.625,69.5625,-0.738098,0.398499,0.181702,0.513184
-20.625,-71.5,-52.125,10.38,-5.6,7.06,-30.25,11.375,-0.875,33.125,43.625,70.0625,-0.733337,0.402283,0.18866,0.514587
-16.5,-87,-65.875,10.54,-5.52,7.06,-30.25,11.375,-0.875,33.125,43.625,70.0625,-0.733337,0.402283,0.18866,0.514587
-13.4375,-99.0625,-76,10.54,-5.54,7.25,-30.6875,11.0625,-0.5625,33.1875,44.875,70.625,-0.727966,0.406189,0.196777,0.516113
-13.3125,-105,-83.8125,10.35,-5.69,7.31,-30.6875,11.0625,-0.5625,33.1875,46.125,71.25,-0.715698,0.41394,0.214355,0.520142
-14.125,-103.562,-92,10.01,-5.76,7.43,-30.6875,11.0625,-0.5625,32.875,48.8125,72.8125,-0.708862,0.417053,0.223206,0.523193
-13.4375,-96.5625,-103.562,9.23,-5.61,7.65,-30.6875,11.0625,-0.5625,32.375,50.125,73.875,-0.701538,0.419189,0.231934,0.527527
-11.125,-84,-119.125,8.73,-5.28,7.65,-30.6875,11.0625,-0.5625,32.375,50.125,73.875,-0.701538,0.419189,0.231934,0.527527
-8.125,-68.375,-139.812,8.21,-4.9,7.72,-31.0625,10.0625,0.6875,31.5,51.375,75.125,-0.693665,0.419922,0.24054,0.533508
-4.4375,-52.875,-165.25,7.96,-4.55,7.8,-31.0625,10.0625,0.6875,28.1875,53.875,76.625,-0.675232,0.416748,0.258179,0.551086
-0.0625,-36.9375,-191.5,7.84,-3.98,7.93,-31.0625,10.0625,0.6875,25.625,55,80.4375,-0.664795,0.41272,0.267273,0.562439
5.3125,-22.375,-216.5,7.97,-3.64,7.83,-31.0625,10.0625,0.6875,22.5,56.0625,82.6875,-0.653442,0.407104,0.276733,0.575073
11.5625,-11.1875,-238.875,8.2,-3.34,7.83,-31.0625,10.0625,0.6875,22.5,56.0625,82.6875,-0.653442,0.407104,0.276733,0.575073
18.875,-6.125,-256.125,8.77,-2.79,8.01,-31.75,7.5,4.75,18.8125,57,85.0625,-0.641357,0.400269,0.286743,0.588379
26.3125,-5.25,-267.125,8.73,-2.58,8.04,-31.75,7.5,4.75,14.75,57.8125,87.5,-0.628662,0.392578,0.297302,0.615112
33.6875,-7.375,-273.062,8.54,-2.39,7.87,-31.75,7.5,4.75,5.5625,58.9375,92.375,-0.602112,0.375366,0.320007,0.627869
41.625,-11.8125,-275.875,8.41,-2.17,7.61,-31.75,7.5,4.75,0.625,59.25,94.75,-0.588379,0.36615,0.332275,0.639771
50.875,-17.8125,-276.5,8.02,-1.58,7.61,-31.75,7.5,4.75,0.625,59.25,94.75,-0.588379,0.36615,0.332275,0.639771
60.1875,-23.9375,-274.938,7.93,-1.32,7.75,-32.1875,0.25,6,-4.4375,59.375,97.0625,-0.574585,0.356628,0.345154,0.650818
69.0625,-26.875,-271.688,7.8,-0.98,7.76,-32.1875,0.25,6,-14.6875,59.3125,99.375,-0.547119,0.336365,0.371765,0.670349
78.3125,-27.625,-268,7.09,-0.45,7.32,-32.1875,0.25,6,-19.6875,58.5625,103.625,-0.533447,0.3255,0.385559,0.678833
87.9375,-29.1875,-266.188,6.72,-0.15,7.31,-32.1875,0.25,6,-24.6875,57.875,105.75,-0.519653,0.314148,0.399841,0.686584
98,-32.125,-266.688,6.39,0.07,7.31,-32.1875,0.25,6,-24.6875,57.875,105.75,-0.519653,0.314148,0.399841,0.686584
107.5,-36.75,-269,6.21,0.33,7.31,-31.5,-6.375,6.75,-29.625,57,107.812,-0.505554,0.302368,0.414673,0.693604
116.438,-42.25,-271.312,5.84,0.61,7.24,-31.5,-6.375,6.75,-34.4375,55.9375,109.875,-0.490967,0.290283,0.430115,0.699768
124.75,-49.0625,-272.688,5.87,0.68,7.35,-31.5,-6.375,6.75,-43.625,53.375,114,-0.460632,0.265564,0.462402,0.709595
132.438,-54.3125,-272.312,6.08,0.68,7.01,-31.5,-6.375,6.75,-47.875,51.875,116,-0.445312,0.253052,0.478821,0.713013
138.875,-57.75,-268.125,6.14,0.76,7.01,-31.5,-6.375,6.75,-47.875,51.875,116,-0.445312,0.253052,0.478821,0.713013
145.188,-60.9375,-260,6.31,0.82,6.3,-27.6875,-12.375,9.25,-51.8125,50.375,117.938,-0.430115,0.240662,0.495239,0.715393
151.312,-63.125,-248.438,6.18,0.89,6.19,-27.6875,-12.375,9.25,-55.5625,48.75,119.75,-0.415405,0.216614,0.527588,0.716675
156,-62.75,-235.188,5.88,1.05,6.02,-27.6875,-12.375,9.25,-62.1875,45.625,123.062,-0.387878,0.205017,0.543213,0.71582
158.438,-62.25,-222.812,5.2,1.52,6.02,-27.6875,-12.375,9.25,-65.1875,44.0625,124.562,-0.374817,0.193848,0.558411,0.714233
158.75,-62.375,-212.125,4.88,1.68,5.88,-27.6875,-12.375,9.25,-65.1875,44.0625,124.562,-0.374817,0.193848,0.558411,0.714233
158.188,-65.1875,-203.562,4.57,1.77,5.68,-25.5,-17.6875,13.375,-68,42.5,126.062,-0.362,0.183105,0.573181,0.711975
157.75,-71.3125,-198,4.17,1.83,5.44,-25.5,-17.6875,13.375,-70.6875,40.9375,127.562,-0.348999,0.172913,0.587769,0.709106
158.25,-80.9375,-195.312,3.44,1.86,4.67,-25.5,-17.6875,13.375,-76,37.8125,130.75,-0.321289,0.154358,0.616943,0.701599
159.062,-91.8125,-195,3.11,1.95,4.67,-25.5,-17.6875,13.375,-78.5625,36.125,132.5,-0.306396,0.145813,0.631592,0.697144
159.5,-101.625,-196.438,2.9,2.01,4.38,-25.5,-17.6875,13.375,-78.5625,36.125,132.5,-0.306396,0.145813,0.631592,0.697144
159.625,-109,-197.812,2.57,2.15,3.45,-20.5625,-20,19.0625,-81.0625,34.4375,134.375,-0.290771,0.137512,0.646057,0.6922
159.875,-113.438,-198.5,2.55,2.18,3.08,-20.5625,-20,19.0625,-83.5,32.6875,136.375,-0.258606,0.121277,0.674194,0.681091
158.75,-114.812,-197.188,2.72,2.21,2.72,-20.5625,-20,19.0625,-88.0625,29.0625,140.438,-0.242615,0.113342,0.687378,0.67511
156.125,-112.562,-192.938,2.87,2.26,2.58,-20.5625,-20,19.0625,-90.0625,27.3125,142.5,-0.22699,0.105591,0.69989,0.668945
150.875,-109.625,-186.812,3.16,2.26,2.18,-20.5625,-20,19.0625,-90.0625,27.3125,142.5,-0.22699,0.105591,0.69989,0.668945
144.625,-106.312,-179.375,2.91,2.27,2.06,-16.1875,-21.5625,23.1875,-92,25.5625,144.5,-0.211792,0.0982056,0.711548,0.66272
136.438,-108.375,-173.25,2.6,2.29,2.03,-16.1875,-21.5625,23.1875,-93.75,23.8125,146.625,-0.196655,0.0914307,0.722351,0.656616
125.438,-115.5,-169.188,2.3,2.27,2.16,-16.1875,-21.5625,23.1875,-96.875,20.375,151.25,-0.165161,0.0802002,0.741516,0.645386
111.438,-123.625,-166.312,1.92,2.3,2.43,-16.1875,-21.5625,23.1875,-98.125,18.625,153.812,-0.148743,0.0756836,0.749512,0.640625
95.75,-129.812,-163.312,1.53,2.32,2.45,-16.1875,-21.5625,23.1875,-98.125,18.625,153.812,-0.148743,0.0756836,0.749512,0.640625
80.1875,-132.125,-160.188,1.17,2.45,2.28,-11,-20.75,27.1875,-99.25,16.875,156.5,-0.132202,0.0716553,0.756348,0.636597
65.6875,-130.188,-156.562,0.34,2.83,1.93,-11,-20.75,27.1875,-100.188,15.1875,159.25,-0.115845,0.0640869,0.766968,0.630615
52.25,-122.812,-152.938,-0.18,3.02,1.6,-11,-20.75,27.1875,-101.5,11.875,164.625,-0.0848389,0.0600586,0.770813,0.62854
40.75,-113.688,-150.875,-0.74,3.18,1.24,-11,-20.75,27.1875,-101.938,10.25,167.25,-0.0700073,0.055603,0.773987,0.626892
32.9375,-106.5,-151.25,-1.3,3.21,0.7,-11,-20.75,27.1875,-101.938,10.25,167.25,-0.0700073,0.055603,0.773987,0.626892
28.875,-103.375,-155.25,-2.4,3.22,0.02,-6.25,-18.875,29.5,-102.312,8.5625,169.875,-0.0551758,0.0507202,0.776733,0.625305
26.875,-105.812,-162,-2.66,3.17,0.01,-6.25,-18.875,29.5,-102.688,6.8125,172.688,-0.0397949,0.0455933,0.779236,0.623779
25.0625,-110.938,-168.688,-2.83,3.08,0.17,-6.25,-18.875,29.5,-103.25,3.0625,178.688,-0.00701904,0.0348511,0.783325,0.620605
22,-115.938,-173.062,-2.97,2.93,0.43,-6.25,-18.875,29.5,-103.438,1.1875,178.688,0.00994873,0.0296021,0.784729,0.61908
17.3125,-119.312,-173.5,-3.09,3,0.44,-6.25,-18.875,29.5,-103.438,1.1875,181.812,0.00994873,0.0296021,0.784729,0.61908
12.3125,-119.812,-170.25,-3.18,3.06,0.35,-1.75,-17.75,31.1875,-103.562,-0.625,184.938,0.0267334,0.0245972,0.785583,0.617737
8.0625,-115.875,-164.438,-3.4,3.16,0.15,-1.75,-17.75,31.1875,-103.625,-2.4375,187.938,0.0429688,0.0197144,0.78595,0.615356
4.3125,-113.812,-157.312,-3.99,3.29,-0.41,-1.75,-17.75,31.1875,-103.625,-5.875,193.75,0.0742188,0.0112915,0.785522,0.614258
1.875,-115.75,-150.562,-4.39,3.34,-0.63,-1.75,-17.75,31.1875,-103.5,-7.5,196.625,0.0897827,0.00787354,0.78479,0.613159
0.375,-120.562,-145.125,-4.7,3.41,-0.78,-1.75,-17.75,31.1875,-103.5,-7.5,196.625,0.0897827,0.00787354,0.78479,0.613159
0.375,-126.438,-141.312,-4.96,3.21,-0.62,2.6875,-17.375,29.875,-103.375,-9.125,199.5,0.105469,0.00506592,0.783875,0.611938
0.9375,-131.062,-138.312,-5.22,3.11,-0.25,2.6875,-17.375,29.875,-103.25,-10.6875,202.438,0.121277,0.00268555,0.782715,0.610474
0.1875,-134.812,-136.375,-5.44,3.06,0.23,2.6875,-17.375,29.875,-102.75,-13.875,208.25,0.153137,-0.00128174,0.779419,0.607483
-2.3125,-136.75,-135.25,-5.72,3.11,0.64,2.6875,-17.375,29.875,-102.438,-13.875,208.25,0.169128,-0.0032959,0.777222,0.606079
-6.5,-137.062,-135.938,-6.52,3.41,1.12,2.6875,-17.375,29.875,-102.438,-15.4375,211.125,0.169128,-0.0032959,0.777222,0.606079
-11.3125,-137.5,-138.25,-7.05,3.6,1.03,7.25,-15.5,28.6875,-102.062,-17.0625,214,0.185181,-0.00549316,0.774536,0.604797
-15.5625,-138.438,-143.25,-7.5,3.83,0.83,7.25,-15.5,28.6875,-101.562,-18.6875,216.875,0.201538,-0.00805664,0.771362,0.602173
-17.3125,-139.25,-149.812,-7.92,3.81,0.57,7.25,-15.5,28.6875,-100.438,-22.125,222.75,0.235107,-0.0144653,0.764343,0.600281
-15.4375,-137.688,-157.75,-8.6,3.71,0.23,7.25,-15.5,28.6875,-100.438,-22.125,222.75,0.252014,-0.0187988,0.760864,0.597717
-10.3125,-131.5,-166.5,-8.94,3.69,0,7.25,-15.5,28.6875,-99.9375,-23.9375,225.688,0.252014,-0.0187988,0.760864,0.597717
-2.4375,-123.625,-176.188,-9.33,3.72,-0.21,11.875,-15.5,25.375,-99.5,-25.8125,228.625,0.268799,-0.0239258,0.75769,0.594177
7.5625,-117.5,-186.625,-9.9,3.9,-0.64,11.875,-15.5,25.375,-99.1875,-27.75,231.688,0.285645,-0.0297852,0.754883,0.5896
18.3125,-115.875,-196.688,-10.22,4.13,-0.55,11.875,-15.5,25.375,-98.6875,-32,238.062,0.320618,-0.0425415,0.749939,0.577026
28.875,-119.438,-206.062,-10.34,4.3,-0.21,11.875,-15.5,25.375,-98.6875,-32,238.062,0.33905,-0.0488281,0.747437,0.569214
37.5,-126.75,-212.938,-10.53,4.48,0.17,11.875,-15.5,25.375,-98.4375,-34.1875,241.562,0.33905,-0.0488281,0.747437,0.569214
43.375,-136.25,-215.562,-10.54,4.72,0.83,15,-12,22.5625,-98.1875,-36.4375,245.125,0.358154,-0.0546265,0.744568,0.56073
47.375,-143.375,-213.938,-10.65,4.73,0.89,15,-12,22.5625,-97.8125,-38.6875,248.688,0.377441,-0.0598755,0.741272,0.551819
50.125,-145.25,-209,-10.86,4.78,0.71,15,-12,22.5625,-96.8125,-43,255.75,0.414917,-0.0689697,0.73407,0.533142
52.4375,-143.125,-204.375,-11,4.88,0.47,15,-12,22.5625,-96.8125,-43,255.75,0.4328,-0.0731812,0.730347,0.523438
54.625,-139.375,-200.562,-11.52,5.23,0.23,15,-12,22.5625,-96.25,-45.125,259.125,0.4328,-0.0731812,0.730347,0.523438
56.25,-137.375,-198.062,-11.79,5.42,0.35,19.6875,-7.375,20.5625,-95.625,-47.125,262.5,0.450256,-0.0772705,0.726379,0.513428
57.3125,-136.438,-196.438,-12.08,5.57,0.6,19.6875,-7.375,20.5625,-94.9375,-49.1875,265.75,0.467468,-0.0811768,0.722229,0.503235
57.6875,-134.875,-194.562,-12.4,5.95,1.06,19.6875,-7.375,20.5625,-93.1875,-53.0625,268.938,0.50061,-0.0887451,0.713379,0.4823
58.5,-133,-192.062,-12.75,6.03,1.23,19.6875,-7.375,20.5625,-93.1875,-53.0625,272.125,0.50061,-0.0922241,0.708618,0.471497
60,-133.312,-190.625,-12.94,6.04,1.22,19.6875,-7.375,20.5625,-92.0625,-55,275.188,0.516785,-0.0922241,0.708618,0.471497
62.1875,-135,-189.562,-13.01,6,1.15,22,-1.375,17.0625,-90.8125,-56.875,278.312,0.532776,-0.095459,0.703552,0.46051
65.75,-135.5,-188,-13.41,5.9,0.93,22,-1.375,17.0625,-89.375,-58.6875,281.375,0.548523,-0.0983887,0.698364,0.449097
70.1875,-136,-186.375,-13.52,5.94,0.95,22,-1.375,17.0625,-85.875,-60.4375,284.375,0.579407,-0.103149,0.687561,0.425293
74.375,-136.188,-184.312,-13.5,6,1.15,22,-1.375,17.0625,-85.875,-62.1875,287.438,0.579407,-0.10498,0.682007,0.413086
77.1875,-135.688,-180.875,-12.95,5.78,1.6,22,-1.375,17.0625,-83.75,-63.8125,290.375,0.59436,-0.10498,0.682007,0.413086
78.125,-133.062,-174.938,-12.81,5.5,1.7,23.6875,5.25,12.25,-81.375,-65.3125,293.25,0.608704,-0.106445,0.676331,0.400879
77.9375,-128.875,-166.938,-12.75,5.15,1.67,23.6875,5.25,12.25,-78.75,-66.6875,295.938,0.622314,-0.107605,0.670715,0.388916
78.0625,-126.188,-158.062,-12.97,4.75,1.68,23.6875,5.25,12.25,-72.625,-67.875,298.562,0.647705,-0.108398,0.659363,0.365967
78.5625,-126.375,-149,-13.56,4.1,2.07,23.6875,5.25,12.25,-72.625,-68.9375,301.062,0.647705,-0.108398,0.653503,0.354919
80,-126.938,-140.75,-13.72,3.85,2.03,23.6875,5.25,12.25,-69.125,-69.875,303.438,0.659729,-0.107971,0.653503,0.354919
82.625,-124.812,-132.438,-13.78,3.51,1.87,24.375,10.1875,7.375,-65.4375,-70.5625,305.688,0.671265,-0.106873,0.647766,0.344055
87.6875,-119.938,-125.625,-13.82,3.1,1.6,24.375,10.1875,7.375,-61.6875,-71.125,307.938,0.68219,-0.105286,0.642273,0.333191
94.25,-113.625,-121.375,-13.9,2.07,1.21,24.375,10.1875,7.375,-58.0625,-71.625,310.062,0.702393,-0.100769,0.632568,0.310486
101.438,-107.625,-119.625,-13.67,1.68,1.04,24.375,10.1875,7.375,-54.4375,-72,312.25,0.702393,-0.0980835,0.628174,0.298523
107.062,-102.938,-119.438,-13.27,1.46,1.18,24.375,10.1875,7.375,-50.8125,-72.3125,314.438,0.711792,-0.0980835,0.628174,0.298523
109.312,-98.8125,-118.812,-12.76,1.46,2.42,23.875,15.375,4.25,-47.1875,-72.5625,316.625,0.720886,-0.0953369,0.623901,0.286377
106.188,-93.4375,-116.375,-12.52,1.59,3.01,23.875,15.375,4.25,-43.625,-72.6875,318.75,0.72937,-0.0927124,0.619751,0.274414
98.75,-85.6875,-112.125,-12.57,1.58,3.1,23.875,15.375,4.25,-40.1875,-72.8125,320.688,0.737183,-0.0886841,0.611938,0.252075
91.1875,-80.5,-108.062,-12.82,1.29,2.92,23.875,15.375,4.25,-36.875,-72.875,322.562,0.744385,-0.0886841,0.607971,0.241577
86.75,-79.9375,-105.188,-13.05,0.41,2.41,23.875,15.375,4.25,-33.5625,-72.8125,324.312,0.751343,-0.0869751,0.607971,0.241577
85.375,-82.25,-103.125,-12.82,-0.03,2.39,22.875,18.375,1,-30.25,-72.6875,326.062,0.75824,-0.085144,0.603638,0.231201
85.5625,-83.0625,-99.9375,-12.57,-0.4,2.36,22.875,18.375,1,-27.1875,-72.4375,327.75,0.764954,-0.0831299,0.599243,0.221008
86.75,-79.8125,-94.4375,-12.29,-0.77,2.44,22.875,18.375,1,-24.375,-72.125,329.375,0.771301,-0.0808105,0.591248,0.201355
88.8125,-71.625,-88,-12.43,-0.89,2.5,22.875,18.375,1,-22,-71.8125,330.938,0.777039,-0.078125,0.591248,0.191711
91.625,-61.1875,-82.5,-12.68,-0.93,2.6,22.875,18.375,1,-19.9375,-71.5625,332.438,0.782043,-0.0751953,0.588196,0.191711
93.375,-51.1875,-78.875,-12.78,-0.89,2.63,20.875,20.6875,-3.75,-18.25,-71.375,333.875,0.786438,-0.0721436,0.585815,0.18219
93.625,-44.875,-77.0625,-12.51,-0.94,2.71,20.875,20.6875,-3.75,-16.625,-71.125,335.312,0.790344,-0.0690308,0.58374,0.172729
91.875,-42.4375,-75.5,-12.05,-1.14,2.76,20.875,20.6875,-3.75,-15.125,-70.9375,336.688,0.794006,-0.065979,0.579773,0.154358
89,-41.4375,-72.375,-11.57,-1.38,2.74,20.875,20.6875,-3.75,-13.75,-70.75,338.062,0.797546,-0.0629883,0.579773,0.145874
85.8125,-39.625,-66.625,-11.23,-1.55,2.68,20.875,20.6875,-3.75,-12.5625,-70.5,339.312,0.80072,-0.0599976,0.577881,0.145874
81.875,-37.1875,-59.8125,-11.12,-1.68,2.78,19.5625,22.1875,-5.25,-11.5625,-70.3125,340.5,0.803711,-0.0568848,0.57605,0.138
77.125,-34.375,-53.5625,-11.16,-1.6,2.86,19.5625,22.1875,-5.25,-10.6875,-70.0625,341.562,0.806335,-0.053833,0.574341,0.130798
71.1875,-31.3125,-49,-11.23,-1.52,2.84,19.5625,22.1875,-5.25,-9.9375,-69.875,342.5,0.808716,-0.0510254,0.572693,0.117981
64.625,-27.8125,-46.3125,-11.06,-1.32,2.83,19.5625,22.1875,-5.25,-9.25,-69.6875,343.438,0.810791,-0.048584,0.571289,0.117981
57.5625,-23,-44.1875,-11.04,-1.3,2.83,19.5625,22.1875,-5.25,-8.5625,-69.5,344.25,0.812561,-0.0465088,0.570068,0.112244
50.8125,-18.25,-42.4375,-10.99,-1.3,2.84,18.5,24.0625,-7.25,-7.9375,-69.375,345,0.814026,-0.0449219,0.569153,0.106934
44.1875,-15,-40.4375,-10.9,-1.28,2.83,18.5,24.0625,-7.25,-7.25,-69.3125,345.688,0.815247,-0.0437012,0.568359,0.102112
37.4375,-13.375,-38.75,-10.66,-1.09,3,18.5,24.0625,-7.25,-6.625,-69.1875,346.312,0.816345,-0.0428467,0.567566,0.0976562
30.3125,-12.875,-36.6875,-10.53,-0.94,3.04,18.5,24.0625,-7.25,-5.9375,-69.125,346.875,0.817383,-0.0424194,0.566833,0.09375
23.375,-13,-34.25,-10.43,-0.87,2.97,18.5,24.0625,-7.25,-5.25,-69.0625,347.375,0.818359,-0.0423584,0.565979,0.090271
17.25,-14.25,-31.3125,-10.29,-0.77,2.91,17.75,24.375,-9.375,-4.625,-68.9375,347.812,0.819336,-0.0425415,0.565002,0.0873413
12.1875,-15.125,-27.8125,-10.27,-0.75,2.84,17.75,24.375,-9.375,-4,-68.8125,348.125,0.820312,-0.0429077,0.563965,0.0848999
7.9375,-15.9375,-25,-10.24,-0.72,2.79,17.75,24.375,-9.375,-3.4375,-68.6875,348.438,0.821289,-0.043457,0.562805,0.0828247
4.4375,-16.9375,-22.875,-10.14,-0.65,2.92,17.75,24.375,-9.375,-2.875,-68.5,348.688,0.822266,-0.0440674,0.561584,0.0811157
1.25,-16.8125,-20.875,-9.95,-0.54,3.15,17.75,24.375,-9.375,-2.375,-68.375,348.938,0.823181,-0.0448608,0.560303,0.0796509
-1.8125,-15.125,-18.375,-9.94,-0.45,3.08,17.5,24.0625,-10,-1.875,-68.1875,349.062,0.824036,-0.0457764,0.559204,0.0784912
-4.375,-12.0625,-16.125,-9.96,-0.34,2.99,17.5,24.0625,-10,-1.4375,-68.125,349.188,0.824707,-0.0467529,0.558289,0.0776367
-6,-9.5625,-14.375,-9.93,-0.3,2.88,17.5,24.0625,-10,-1,-68,349.312,0.825195,-0.0477905,0.557495,0.0769653
-6.75,-7.375,-13.25,-9.96,-0.21,2.94,17.5,24.0625,-10,-0.625,-67.9375,349.375,0.825623,-0.0488281,0.556885,0.076416
-7.0625,-5.3125,-12.5625,-9.94,-0.23,3.08,17.5,24.0625,-10,-0.25,-67.875,349.5,0.825928,-0.0499268,0.556396,0.0758667
-7.5,-3.125,-11.875,-9.96,-0.22,3.18,16.75,26,-9.25,0,-67.875,349.562,0.826111,-0.0509644,0.556091,0.0753784
-7.875,-0.875,-11.3125,-10.17,-0.21,3.33,16.75,26,-9.25,0.375,-67.875,349.625,0.826233,-0.052063,0.555908,0.0749512
-8,0.625,-11.4375,-10.12,-0.11,3.3,16.75,26,-9.25,0.75,-67.875,349.688,0.826233,-0.0531616,0.555847,0.0745239
-7.9375,2.625,-12.5625,-10.09,-0.04,3.3,16.75,26,-9.25,1.125,-67.875,349.75,0.826111,-0.0543213,0.555969,0.0740356
-7.8125,5.3125,-13.375,-10.04,-0.05,3.33,16.75,26,-9.25,1.5,-67.9375,349.812,0.825928,-0.055542,0.556213,0.0734253
-8,8.4375,-14.4375,-9.95,-0.07,3.45,16.375,25.875,-10.25,1.9375,-68,349.875,0.825562,-0.0568237,0.556702,0.0727539
-8.5,11.8125,-15,-9.9,-0.09,3.52,16.375,25.875,-10.25,2.375,-68.125,350,0.82489,-0.0581665,0.557617,0.0720825
-9.25,15.5625,-14.9375,-9.82,-0.04,3.64,16.375,25.875,-10.25,2.8125,-68.3125,350.062,0.824219,-0.0596313,0.558594,0.0714111
-10.3125,18.9375,-13.8125,-9.66,0.02,3.76,16.375,25.875,-10.25,3.3125,-68.5,350.125,0.823364,-0.0610962,0.559753,0.0708008
-11.3125,21.4375,-11.4375,-9.54,-0.01,3.74,16.375,25.875,-10.25,3.75,-68.6875,350.188,0.822327,-0.062561,0.561157,0.0704346
-12,23.1875,-8.6875,-9.46,-0.03,3.74,16.75,26.25,-10.25,4.125,-68.875,350.188,0.821228,-0.0639648,0.562622,0.0703125
-12.375,24.5625,-5.1875,-9.46,-0.08,3.65,16.75,26.25,-10.25,4.375,-69.125,350.188,0.820007,-0.0651855,0.564209,0.0703735
-12.125,25.4375,-1.875,-9.42,-0.07,3.68,16.75,26.25,-10.25,4.625,-69.375,350.125,0.818726,-0.0662842,0.565918,0.0706787
-12,26.3125,1.0625,-9.43,-0.04,3.85,16.75,26.25,-10.25,4.75,-69.625,350,0.817383,-0.0672607,0.567688,0.071167
-12.75,27.875,3.375,-9.43,0.05,4,16.75,26.25,-10.25,4.875,-69.875,349.875,0.815979,-0.0681152,0.569519,0.0718994
-14.1875,30.1875,5.4375,-9.4,0.12,4.1,15.75,25.5625,-9.5,4.9375,-70.1875,351,0.815125,-0.0628052,0.572266,0.0639038
-16.375,32.6875,6.8125,-9.43,0.24,4.23,15.75,25.5625,-9.5,5,-70.5,350.812,0.813416,-0.0637817,0.574463,0.0650024
-19.0625,34.25,7.8125,-9.44,0.2,4.21,15.75,25.5625,-9.5,5,-70.875,350.625,0.811646,-0.0648804,0.576782,0.0662842
-22.0625,34.125,8,-9.37,0.23,4.25,15.75,25.5625,-9.5,5.125,-71.1875,350.438,0.809814,-0.0662231,0.579041,0.067688
-24.6875,31.3125,8.5625,-8.8,0.12,4.01,15.75,25.5625,-9.5,5.1875,-71.5,350.188,0.808044,-0.067627,0.581055,0.0693359
-26.25,28.125,11.4375,-8.9,0.09,4.12,16.0625,26.25,-7.5,5.1875,-71.75,350.812,0.807007,-0.0640869,0.583496,0.0643921
-27.5625,22.4375,15.25,-8.79,0.05,4.34,16.0625,26.25,-7.5,5.0625,-72,350.5,0.805664,-0.0653687,0.5849,0.0667114
-29.875,16.5625,19.125,-8.49,0.09,4.55,16.0625,26.25,-7.5,4.8125,-72.1875,350.125,0.804565,-0.0665283,0.585999,0.069397
-32.875,13.8125,24.5,-8.19,0.23,4.36,16.0625,26.25,-7.5,4.4375,-72.3125,349.625,0.803589,-0.067627,0.586853,0.0726318
-35.0625,13.875,30.4375,-8.36,0.22,4.18,16.0625,26.25,-7.5,3.875,-72.5,349.125,0.80249,-0.0686035,0.587769,0.076355
-35.75,14.6875,34.625,-8.61,0.22,4.09,17.25,26.25,-7.5,3.1875,-72.625,349.5,0.802002,-0.06427,0.589294,0.0733643
-35.375,15.1875,36.0625,-8.77,0.17,4.24,17.25,26.25,-7.5,2.375,-72.8125,348.938,0.800781,-0.0649414,0.590332,0.0775146
-34.375,16.625,35.75,-8.81,0.21,4.27,17.25,26.25,-7.5,1.625,-73,348.312,0.799561,-0.0656128,0.591431,0.081543
-33.1875,19.25,34.1875,-8.83,0.24,4.24,17.25,26.25,-7.5,0.875,-73.1875,347.75,0.798157,-0.0662842,0.592651,0.0853882
-31.4375,22.125,31.5,-8.91,0.22,4.18,17.25,26.25,-7.5,0.1875,-73.375,347.25,0.796631,-0.0669556,0.594116,0.0889893
-28.9375,23.5625,27.875,-9.04,0.22,4.08,16.875,25.875,-6.6875,-0.4375,-73.625,347.75,0.795837,-0.062561,0.596191,0.0852661
-25.875,23.125,23.0625,-8.88,0.22,4.09,16.875,25.875,-6.6875,-0.9375,-73.875,347.312,0.794373,-0.0632935,0.597656,0.0880127
-22.75,20.875,18.6875,-8.7,0.19,4.11,16.875,25.875,-6.6875,-1.375,-74.0625,347,0.79303,-0.0640259,0.598999,0.090332
-20.125,19.125,15.1875,-8.52,0.15,4.2,16.875,25.875,-6.6875,-1.75,-73.9375,346.688,0.793396,-0.0643921,0.598206,0.0925293
-17.75,17.8125,13.25,-8.34,0.12,4.16,16.875,25.875,-6.6875,-2.0625,-74.125,346.375,0.792297,-0.0650635,0.599304,0.0942383
-15.5,16.875,12.125,-8.29,0.12,4.14,18,25.5625,-5.25,-2.3125,-74.25,347,0.791931,-0.0611572,0.600891,0.0898438
-13,16.375,11.25,-8.21,0.17,4.07,18,25.5625,-5.25,-2.625,-74.4375,346.812,0.790955,-0.0615845,0.601929,0.0911865
-10.6875,16.1875,10.5625,-8.1,0.12,4.04,18,25.5625,-5.25,-2.9375,-74.5625,346.625,0.789978,-0.0618896,0.602966,0.0923462
-8.5625,16.1875,10.5,-8.06,0.04,4.03,18,25.5625,-5.25,-3.25,-74.75,346.438,0.789001,-0.0620117,0.604065,0.0933838
-6.5625,16.25,10.5,-8.08,0,4.09,18,25.5625,-5.25,-3.5625,-74.875,346.312,0.788086,-0.0620728,0.605164,0.0943604
-5,15.75,10.625,-8.06,0.01,4.15,18,24.75,-5.25,-3.9375,-75,347.062,0.787842,-0.057251,0.606689,0.0891724
-4.1875,15.0625,10.625,-7.98,0.04,4.23,18,24.75,-5.25,-4.3125,-75.125,346.938,0.786987,-0.0571289,0.607666,0.0900269
-4.25,14.8125,11.3125,-8.03,0.09,4.15,18,24.75,-5.25,-4.5625,-74.9375,346.812,0.788147,-0.0568237,0.606079,0.0910034
-3.875,14.625,11.8125,-8.09,0.13,4.12,18,24.75,-5.25,-4.8125,-74.6875,346.688,0.789246,-0.0565186,0.604553,0.0921021
-3.375,13.625,12.1875,-8.27,0.17,4.01,18,24.75,-5.25,-5.0625,-74.4375,346.5,0.790222,-0.0560913,0.603088,0.0931396
-2.875,12,12,-8.26,0.17,3.99,17.5625,25.5625,-5.6875,-5.3125,-74.25,347.375,0.791992,-0.050293,0.602112,0.0872192
-2.3125,8.6875,10.9375,-8.2,0.16,4.06,17.5625,25.5625,-5.6875,-5.5625,-74,347.312,0.793152,-0.0498657,0.600525,0.0881348
-2.375,4.75,9.875,-8.17,0.17,4.12,17.5625,25.5625,-5.6875,-5.6875,-73.75,347.188,0.794495,-0.0494995,0.598633,0.0889893
-3.0625,0.6875,9.25,-8.1,0.1,4.2,17.5625,25.5625,-5.6875,-5.75,-73.375,347.062,0.796082,-0.0491943,0.596436,0.0898438
-4.3125,-2.9375,8.8125,-8.1,0.1,4.2,17.5625,25.5625,-5.6875,-5.8125,-73.0625,347,0.797791,-0.0490112,0.594055,0.0907593
-5.375,-5.625,7.9375,-8.16,0.11,4.18,18.75,24.75,-3.25,-5.8125,-72.6875,347.375,0.799988,-0.0463867,0.591675,0.0881348
-6.75,-7.1875,6.8125,-8.27,0.14,4.16,18.75,24.75,-3.25,-5.75,-72.3125,347.312,0.801758,-0.0464478,0.589111,0.0890503
-7.6875,-7.625,5,-8.44,0.26,4.05,18.75,24.75,-3.25,-5.625,-72,347.188,0.803406,-0.0466309,0.586731,0.0898438
-8.125,-7.3125,2.875,-8.43,0.3,4.07,18.75,24.75,-3.25,-5.5,-71.6875,347.125,0.804993,-0.046875,0.584473,0.0905762
-8.125,-6,1.125,-8.4,0.37,4.05,18.75,24.75,-3.25,-5.4375,-71.375,347.062,0.806396,-0.0471802,0.582397,0.0912476
-7.125,-4.125,0.125,-8.42,0.41,3.75,19.5,24.75,-4.0625,-5.3125,-71.125,347.5,0.807922,-0.0448608,0.580872,0.0883179
-5.375,-3.1875,-0.125,-8.49,0.42,3.63,19.5,24.75,-4.0625,-5.25,-71.125,347.438,0.808044,-0.0452271,0.580627,0.088623
-2.6875,-4.1875,-0.25,-8.51,0.4,3.63,19.5,24.75,-4.0625,-5.25,-71.0625,347.438,0.808289,-0.0453491,0.580322,0.0887451
0.1875,-5.9375,-0.3125,-8.56,0.41,3.75,19.5,24.75,-4.0625,-5.1875,-71,347.438,0.808533,-0.0453491,0.579895,0.0888062
2.5,-7.6875,-0.375,-8.49,0.43,3.86,19.5,24.75,-4.0625,-5.1875,-70.9375,347.438,0.80896,-0.045105,0.579407,0.0886841
4.375,-8.625,0.125,-8.5,0.48,3.82,19.5,24.0625,-2.875,-5.25,-70.875,347.688,0.809509,-0.0438843,0.578918,0.0872803
5.6875,-8.875,0.6875,-8.54,0.46,3.8,19.5,24.0625,-2.875,-5.3125,-70.625,347.688,0.810669,-0.0430908,0.577332,0.0873413
6.75,-9.4375,0.75,-8.64,0.49,3.74,19.5,24.0625,-2.875,-5.4375,-70.4375,347.688,0.811707,-0.0422363,0.575989,0.0872803
7.1875,-10.3125,0.0625,-8.74,0.53,3.74,19.5,24.0625,-2.875,-5.5625,-70.25,347.75,0.812683,-0.0413818,0.574646,0.0871582
7.375,-10.75,-1.5625,-8.69,0.52,3.74,19.5,24.0625,-2.875,-5.625,-70.0625,347.75,0.81366,-0.0406494,0.573364,0.0869141
7.25,-9.625,-2.75,-8.67,0.54,3.71,18.375,23.6875,-3.6875,-5.625,-69.875,348.188,0.814758,-0.038208,0.572388,0.0841675
7.25,-7.875,-3.5,-8.87,0.49,3.56,18.375,23.6875,-3.6875,-5.625,-69.75,348.25,0.81543,-0.0376587,0.571594,0.0836792
7.375,-7.75,-4.0625,-8.93,0.52,3.62,18.375,23.6875,-3.6875,-5.625,-69.625,348.312,0.815979,-0.0371704,0.570862,0.0831909
7.6875,-9.6875,-4.1875,-8.91,0.55,3.71,18.375,23.6875,-3.6875,-5.625,-69.5,348.438,0.81665,-0.0366211,0.570007,0.0826416
8.125,-12.9375,-3.25,-8.94,0.59,3.76,18.375,23.6875,-3.6875,-5.625,-69.375,348.5,0.817505,-0.0359497,0.568909,0.0822144
8.9375,-16.25,-1.3125,-9.08,0.82,3.49,18.75,24.75,-3.6875,-5.6875,-69.1875,348.812,0.818542,-0.0338135,0.56781,0.0800171
11.0625,-19.4375,1.125,-9.27,0.93,3.29,18.75,24.75,-3.6875,-5.8125,-69,348.875,0.819519,-0.0328369,0.566528,0.0795898
14.5,-21.4375,2.8125,-9.6,1.02,3.22,18.75,24.75,-3.6875,-5.9375,-68.8125,348.938,0.820557,-0.0315552,0.565186,0.0791626
18.6875,-22,3,-10.07,1.26,3.39,18.75,24.75,-3.6875,-6.1875,-68.5625,349.062,0.821655,-0.0299683,0.563782,0.0785522
22.5625,-19.9375,1.875,-10.24,1.43,3.54,18.75,24.75,-3.6875,-6.375,-68.375,349.188,0.822632,-0.0281982,0.562561,0.0776367
25.6875,-15.0625,-0.9375,-10.35,1.64,3.59,18,25.5625,-5.6875,-6.5625,-68.25,349.875,0.82373,-0.0236816,0.561768,0.0725098
27.8125,-8.3125,-5.125,-10.46,1.83,3.62,18,25.5625,-5.6875,-6.6875,-68.1875,350.125,0.824219,-0.0219727,0.56134,0.0708618
29.1875,-2.3125,-10.375,-10.73,2.13,3.68,18,25.5625,-5.6875,-6.6875,-68.1875,350.438,0.824463,-0.0203857,0.56134,0.0687256
29.6875,2.1875,-16.9375,-10.8,2.2,3.73,18,25.5625,-5.6875,-6.5625,-68.1875,350.812,0.824524,-0.019165,0.561646,0.0661621
29.5,5.5625,-23.5,-10.93,2.26,3.69,18,25.5625,-5.6875,-6.3125,-68.25,351.188,0.824402,-0.0182495,0.562134,0.0631104
29.8125,8.1875,-30.125,-11.35,2.26,3.67,18.375,24.75,-4.875,-5.875,-68.375,351.938,0.824341,-0.0166016,0.562866,0.0581055
30.1875,9.0625,-36.3125,-11.46,2.28,3.58,18.375,24.75,-4.875,-5.3125,-68.5,352.438,0.824097,-0.0162964,0.563599,0.0540771
31.375,8.8125,-41.75,-11.49,2.36,3.46,18.375,24.75,-4.875,-4.625,-68.625,353.062,0.823914,-0.0161133,0.56427,0.0496826
33.625,9.5625,-45.0625,-11.44,2.33,3.23,18.375,24.75,-4.875,-3.875,-68.75,353.75,0.823669,-0.0159912,0.565063,0.0449219
37.625,12.9375,-45.9375,-11.74,2.18,2.87,18.375,24.75,-4.875,-3.0625,-68.9375,354.438,0.823303,-0.015625,0.56604,0.039917
43.0625,20.25,-45.125,-11.83,2.15,2.69,18.375,24.375,-5.375,-2.375,-69.125,355.25,0.822571,-0.0142822,0.567505,0.0338745
43.0625,20.25,-43.125,-11.87,2.09,2.55,18.375,24.375,-5.375,-1.75,-69.4375,356,0.821228,-0.0130005,0.569763,0.0285034
53.5625,43.375,-39.9375,-11.88,2.09,2.53,18.375,24.375,-5.375,-1.3125,-69.875,356.75,0.819275,-0.0113525,0.572815,0.0230713
56,56.25,-36.75,-12.29,1.97,2.71,18.375,24.375,-5.375,-0.875,-70.4375,357.5,0.81665,-0.00933838,0.576782,0.0177612
55.3125,66.1875,-34.625,-12.49,1.84,2.84,18.375,24.375,-5.375,-0.4375,-71.0625,358.188,0.813538,-0.00732422,0.58136,0.0126343
55.3125,72.9375,-34.0625,-12.55,1.69,2.95,18,25.1875,-6.1875,0,-71.75,359,0.809998,-0.00500488,0.586426,0.00695801
50.875,76.75,-33.0625,-12.35,1.39,2.9,18,25.1875,-6.1875,0.5625,-72.5,359.625,0.806152,-0.00372314,0.591675,0.00250244
34,78.0625,-30.0625,-12.18,1.22,2.73,18,25.1875,-6.1875,1.1875,-73.25,0.125,0.802246,-0.00292969,0.596924,-0.00128174
24.625,79.3125,-23.375,-12.09,1.01,2.5,18,25.1875,-6.1875,1.8125,-74,0.5625,0.798279,-0.00244141,0.602295,-0.00408936
16.1875,81.5,-13.8125,-12.1,0.8,2.27,18,25.1875,-6.1875,2.25,-74.8125,0.8125,0.794067,-0.00201416,0.607788,-0.00585938
16.1875,83.875,-2.4375,-12.23,0.45,1.74,18,25.5625,-7.375,2.375,-75.625,1.1875,0.789734,-0.00012207,0.613403,-0.00830078
1.25,86.4375,10.375,-12.57,0.27,1.56,18,25.5625,-7.375,2.0625,-76.4375,1.0625,0.785217,0.000549316,0.619141,-0.00769043
-6.1875,87.125,23.9375,-12.96,0.13,1.41,18,25.5625,-7.375,1.25,-77.3125,0.8125,0.780701,0.00146484,0.624878,-0.0057373
-13.5,86.1875,37.6875,-13.35,0,1.08,18,25.5625,-7.375,-0.1875,-78.125,0.3125,0.776123,0.00262451,0.630554,-0.00256348
-20.375,85.4375,51.75,-13.37,-0.04,0.82,18,25.5625,-7.375,-2.5625,-78.9375,359.688,0.771545,0.00402832,0.636108,0.00195312
-26.625,88.375,66,-13.51,-0.12,0.5,17.5625,25.5625,-4.5625,-6.0625,-79.75,358.812,0.766785,0.00579834,0.641846,0.00775146
-32.125,94.6875,79.9375,-13.77,-0.31,0.22,17.5625,25.5625,-4.5625,-11,-80.5625,357.75,0.761536,0.00799561,0.647888,0.0147095
-37.25,101.5,92.0625,-14.18,-0.54,-0.23,17.5625,25.5625,-4.5625,-17.625,-81.3125,356.5,0.755859,0.010498,0.654236,0.0227661
-42.3125,107.125,100.688,-14.26,-0.59,-0.33,17.5625,25.5625,-4.5625,-26,-81.875,355.125,0.749695,0.0131836,0.660889,0.0316162
-47.375,111.312,107,-14.35,-0.61,-0.34,17.5625,25.5625,-4.5625,-35.9375,-82.3125,353.625,0.743225,0.0158691,0.667603,0.0411377
-52.5625,115.375,111.438,-14.46,-0.62,-0.4,19.0625,25.1875,-1.75,-47.0625,-82.4375,351.938,0.736267,0.0180664,0.674438,0.0516968
-52.5625,115.375,111.438,-14.46,-0.72,-0.74,19.0625,25.1875,-1.75,-58.375,-82.25,350.188,0.729004,0.0205078,0.681335,0.0623169
-62.1875,121.5,119.188,-14.69,-0.88,-1.05,19.0625,25.1875,-1.75,-68.875,-81.6875,348.312,0.721436,0.0228882,0.688232,0.0734253
-65.0625,123.625,123.5,-14.76,-1.04,-1.29,19.0625,25.1875,-1.75,-78.0625,-80.875,346.375,0.713501,0.0253296,0.695007,0.0849609
-66.25,124.688,129.125,-14.61,-1.15,-1.69,19.0625,25.1875,-1.75,-85.5,-79.8125,344.312,0.705322,0.0280151,0.701721,0.0969238
-66.25,124.688,129.125,-14.56,-1.18,-1.95,21,22.5625,1.0625,-91.4375,-78.5625,342.125,0.696777,0.0310669,0.708191,0.109192
-66.6875,125.562,135.5,-14.55,-1.12,-2.1,21,22.5625,1.0625,-96.125,-77.0625,339.875,0.687927,0.0344849,0.714661,0.121948
-66.75,131.75,151,-14.52,-1.09,-2.31,21,22.5625,1.0625,-99.8125,-75.4375,337.438,0.678467,0.0383911,0.721069,0.135132
-66.75,137.188,158.312,-14.63,-0.89,-2.4,21,22.5625,1.0625,-102.812,-73.6875,334.875,0.668396,0.0426025,0.727539,0.148743
-67.5,141.062,164.5,-14.45,-0.81,-2.3,21,22.5625,1.0625,-105.125,-71.8125,332.188,0.657837,0.046936,0.733887,0.162842
-70.125,141.062,170.25,-14.11,-0.74,-2.15,22.875,18.75,6.375,-106.938,-69.875,329.25,0.64679,0.0513306,0.739929,0.177551
-76.0625,143.375,176.688,-13.69,-0.64,-2.05,22.875,18.75,6.375,-108.188,-67.8125,326.188,0.635437,0.055542,0.745544,0.193054
-85.1875,145.75,184.75,-13.06,-0.4,-2.29,22.875,18.75,6.375,-109,-65.625,322.812,0.623535,0.0596313,0.750793,0.209656
-95.75,150.812,192.438,-13.03,-0.19,-2.59,22.875,18.75,6.375,-109.625,-63.4375,319.188,0.610962,0.0635986,0.755676,0.227173
-105.062,157.625,198.5,-13.17,0.02,-2.99,22.875,18.75,6.375,-110,-61.0625,315.312,0.597534,0.0675049,0.760437,0.2453
-111.062,162.5,201.938,-13.15,0.58,-3.18,24.0625,13.875,10.0625,-110.312,-58.6875,311.312,0.583374,0.0713501,0.764893,0.263672
-114.375,164.312,205,-12.76,0.8,-3.07,24.0625,13.875,10.0625,-110.438,-56.3125,307.188,0.568726,0.0750732,0.768921,0.282288
-118,165.625,208.875,-12.27,0.98,-2.91,24.0625,13.875,10.0625,-110.375,-53.8125,302.875,0.553589,0.0787964,0.7724,0.30127
-122.625,168.312,214.75,-11.78,1.21,-2.83,24.0625,13.875,10.0625,-110.188,-51.3125,298.375,0.537842,0.0825195,0.77533,0.320618
-127.438,172.625,222,-10.94,1.85,-2.72,24.0625,13.875,10.0625,-109.938,-48.75,293.688,0.52124,0.0864258,0.777771,0.340393
-131.062,178.5,229.188,-10.58,2.26,-2.54,24.5625,7.875,16.1875,-109.562,-46.0625,288.812,0.503723,0.0904541,0.779846,0.360413
-133.125,178.5,234.812,-10.33,2.62,-2.47,24.5625,7.875,16.1875,-109.188,-43.3125,283.75,0.485352,0.0945435,0.781494,0.380493
-134.5,184.438,238.562,-9.81,3.13,-2.36,24.5625,7.875,16.1875,-108.75,-40.5625,278.625,0.46637,0.0987549,0.782471,0.400574
-135.375,181.438,241.188,-9.19,3.34,-2.01,24.5625,7.875,16.1875,-108.188,-37.8125,273.5,0.447205,0.10321,0.782715,0.420349
-135.5,177.812,244,-8.2,3.25,-0.78,24.5625,7.875,16.1875,-107.5,-35,268.375,0.427795,0.107849,0.782227,0.43988
-135.25,177.812,244,-8.2,3.25,-0.55,22.0625,0.0625,20.75,-106.875,-32.1875,263.125,0.407593,0.112549,0.781128,0.459412
-136.625,181.812,248.812,-7.9,3.43,-0.91,22.0625,0.0625,20.75,-106.125,-29.375,257.812,0.386597,0.117065,0.77948,0.478821
-139.438,191.062,251.625,-7.52,4.12,-1.27,22.0625,0.0625,20.75,-105.375,-26.5,252.438,0.365051,0.121216,0.777161,0.498047
-141.562,191.562,248.562,-7.31,4.3,-1.58,22.0625,0.0625,20.75,-104.562,-23.6875,247.188,0.343323,0.125061,0.774292,0.516724
-140.562,191.438,243.812,-6.91,4.42,-2.08,22.0625,0.0625,20.75,-103.75,-20.9375,242,0.321472,0.128662,0.770996,0.534485
-136.375,191.438,243.812,-6.91,4.42,-2.24,18.5,-8.75,24.5,-102.938,-18.3125,237.062,0.299744,0.132141,0.767395,0.551208
-129.188,188.375,238.312,-6.42,4.31,-2.16,18.5,-8.75,24.5,-102.125,-15.6875,232.312,0.278381,0.135681,0.763428,0.566772
-121,168.812,230.375,-5.03,3.93,-1.87,18.5,-8.75,24.5,-101.312,-13.1875,227.812,0.25769,0.139771,0.759033,0.581299
-114.188,155.812,230.875,-3.32,3.55,-0.5,18.5,-8.75,24.5,-100.438,-10.6875,223.5,0.23761,0.14447,0.754089,0.595032
-109.875,148.5,234.75,-2.96,3.63,0,18.5,-8.75,24.5,-99.5625,-8.25,219.312,0.21759,0.149719,0.748535,0.608215
-108.25,148.5,234.75,-2.96,3.63,0.31,14.1875,-15.5,27,-98.6875,-5.6875,215.188,0.197327,0.155273,0.742371,0.621155
-108.375,146.75,239.312,-2.85,3.78,0.34,14.1875,-15.5,27,-97.6875,-3.1875,211.188,0.176941,0.16095,0.735596,0.633789
-110.125,138.75,242.438,-2.37,3.69,0.28,14.1875,-15.5,27,-96.625,-0.6875,207.25,0.156799,0.16687,0.728088,0.646118
-112.75,129.438,241.438,-2.06,3.51,0.21,14.1875,-15.5,27,-95.5,1.6875,203.562,0.137268,0.173035,0.71991,0.65802
-115.188,116.75,240.062,-1.73,3.39,0.21,14.1875,-15.5,27,-94.3125,4.125,200.062,0.118469,0.179749,0.71106,0.669373
-116.5,116.75,240.062,-1.73,3.39,0.21,7.6875,-19.1875,26.1875,-93.125,6.5,196.812,0.100525,0.187134,0.70166,0.680115
-116.625,102.625,239.5,-1.33,3.29,0.77,7.6875,-19.1875,26.1875,-91.875,8.8125,193.75,0.083374,0.19519,0.691711,0.690308
-116.75,74.875,238.688,-1.41,3.27,0.96,7.6875,-19.1875,26.1875,-90.625,11.1875,190.938,0.0670166,0.203857,0.681274,0.69989
-117.688,65.9375,236.5,-1.72,3.2,1.21,7.6875,-19.1875,26.1875,-89.3125,13.4375,188.25,0.0512695,0.21283,0.670349,0.709045
-119,64.625,232.438,-2.04,3,1.02,7.6875,-19.1875,26.1875,-88,15.6875,185.688,0.0358276,0.221558,0.65918,0.717712
-118.438,64.625,232.438,-2.04,3,1.02,2.0625,-22.5,25.0625,-86.6875,17.875,183.125,0.0200195,0.22937,0.64801,0.725952
-114.5,73.875,227.5,-2.1,2.77,0.65,2.0625,-22.5,25.0625,-85.25,19.9375,180.562,0.00360107,0.235657,0.637207,0.733765
-106.688,108.562,212.562,-2.43,2.32,0.76,2.0625,-22.5,25.0625,-83.875,21.875,177.875,-0.0134888,0.240295,0.626831,0.741028
-97.25,122.688,201.562,-1.97,2.03,2.21,2.0625,-22.5,25.0625,-82.375,23.6875,175.25,-0.0307007,0.243347,0.616699,0.747986
-91.75,132.688,189.938,-1.9,1.82,2.71,2.0625,-22.5,25.0625,-80.75,25.3125,172.75,-0.0477295,0.245056,0.606445,0.754944
-93,132.688,189.938,-1.9,1.82,2.71,2.0625,-25.0625,22.5625,-79,26.75,170.375,-0.0640869,0.245483,0.595764,0.762024
-99.3125,140.312,176.875,-1.88,1.62,3.17,-4.0625,-25.0625,22.5625,-77.0625,28,168.188,-0.0794678,0.244873,0.584534,0.76947
-108.438,146.688,145.062,-1.51,1.64,4.63,-4.0625,-25.0625,22.5625,-75,29,166.25,-0.093689,0.243286,0.572632,0.777283
-120.188,153.688,128.438,-1.53,1.84,4.85,-4.0625,-25.0625,22.5625,-72.6875,29.8125,164.5,-0.10675,0.240417,0.559814,0.785767
-134.25,167.562,111.75,-1.47,2.11,4.8,-4.0625,-25.0625,22.5625,-70.1875,30.3125,162.938,-0.11908,0.23584,0.546082,0.794983
-148.688,167.562,111.75,-1.47,2.11,4.8,-4.0625,-25.0625,20.5625,-67.4375,30.5,161.5,-0.130981,0.229187,0.531372,0.804932
-159.625,188,96.3125,-1.22,1.71,3.8,-9.25,-25,20.5625,-64.5625,30.375,160.062,-0.143005,0.219971,0.516296,0.815186
-161.375,244,67.125,-1.57,1.11,3.12,-9.25,-25,20.5625,-61.6875,29.875,158.625,-0.155396,0.207886,0.501404,0.825317
-152.812,244,50.1875,-1.57,0.62,4.53,-9.25,-25,20.5625,-58.9375,29,157.25,-0.167969,0.19281,0.487244,0.835022
-137.562,271.812,32.3125,-1.43,0.48,5.71,-9.25,-25,20.5625,-56.3125,27.75,155.812,-0.18042,0.174866,0.473755,0.844055
-121.188,296.625,32.3125,-1.43,0.48,5.71,-9.25,-25,20.5625,-53.9375,26.125,154.5,-0.192505,0.154297,0.460693,0.852539
-109.062,319.125,14.75,-1.49,0.46,6.67,-13.5,-26.5,14.75,-51.75,24.125,153.312,-0.203979,0.13147,0.447693,0.860657
-102.75,337.688,-23.8125,-2.22,0.43,8.36,-13.5,-26.5,14.75,-49.75,21.8125,152.25,-0.214172,0.107117,0.434448,0.868286
-100.938,346.312,-45.8125,-2.31,0.4,8.88,-13.5,-26.5,14.75,-47.875,19.25,151.438,-0.222534,0.0817261,0.420898,0.87561
-101.938,347.812,-68.5,-2.59,0.46,9.54,-13.5,-26.5,14.75,-46.25,16.4375,150.875,-0.229065,0.0552979,0.406799,0.882629
-104.75,350.625,-68.5,-2.59,0.46,9.54,-13.5,-27.1875,5.75,-44.6875,13.4375,150.5,-0.233948,0.0276489,0.391907,0.889343
-109.875,356.812,-90.9375,-2.95,0.52,10.08,-15.6875,-27.1875,5.75,-43.1875,13.4375,150.5,-0.237183,-0.00146484,0.375916,0.895813
-116.75,368.625,-136.062,-3.92,1.09,11.89,-15.6875,-27.1875,5.75,-41.75,6.4375,150.312,-0.239014,-0.0325317,0.358521,0.901855
-124.5,386.188,-156.375,-4.22,1.45,12.67,-15.6875,-27.1875,5.75,-40.375,2.5,150.375,-0.239563,-0.0653076,0.339478,0.907227
-133.25,404.75,-173.25,-4.84,2.01,13.52,-15.6875,-27.1875,5.75,-38.9375,-1.625,150.625,-0.238892,-0.0994873,0.318848,0.911804
-142.688,419.188,-173.25,-4.84,2.01,13.52,-15.6875,-27.5625,-3.5625,-37.5625,-6,150.938,-0.237122,-0.134216,0.296875,0.915222
-150.062,427.125,-185.875,-5.3,2.11,13.92,-13.75,-27.5625,-3.5625,-36.25,-10.375,151.312,-0.234192,-0.168274,0.274048,0.91748
-155.25,419.5,-194.5,-4.62,1.83,12.94,-13.75,-27.5625,-3.5625,-34.875,-14.625,151.812,-0.23053,-0.200928,0.250977,0.918396
-156.188,405.25,-186.625,-5.28,1.05,11.5,-13.75,-27.5625,-3.5625,-33.625,-18.75,152.25,-0.226685,-0.232056,0.228455,0.917908
-149.5,389.625,-172.812,-5.86,0.71,11.8,-13.75,-27.5625,-3.5625,-32.5,-22.6875,152.625,-0.222961,-0.261108,0.207214,0.916077
-137.062,368.188,-172.812,-5.86,0.71,11.8,-13.75,-27.5625,-3.5625,-31.5,-26.3125,152.938,-0.219604,-0.288147,0.1875,0.913025
-124.75,346.562,-155.438,-7.02,0.51,12.85,-6.75,-28.5,-12.25,-30.625,-29.75,153.125,-0.216858,-0.313538,0.16864,0.908997
-119.938,331.125,-132,-10.79,1.27,14.83,-6.75,-28.5,-12.25,-29.6875,-33.0625,153.312,-0.214478,-0.337585,0.149597,0.904236
-124.625,321.188,-130.562,-11.15,1.75,14.77,-6.75,-28.5,-12.25,-28.625,-36.375,153.375,-0.212219,-0.360657,0.129761,0.898926
-135.25,314.375,-131.625,-11.27,2.01,14.37,-6.75,-28.5,-12.25,-27.5,-39.625,153.5,-0.209961,-0.382812,0.10907,0.893005
-145.625,310.062,-131.625,-11.27,2.01,14.37,-6.75,-28.5,-12.25,-26.1875,-39.625,153.5,-0.207764,-0.404358,0.0879517,0.886353
-151.375,307.375,-130.375,-11.85,2.42,13.57,1.25,-27.75,-18.375,-24.9375,-42.8125,153.562,-0.205566,-0.425293,0.0670166,0.878845
-150.438,305,-118.812,-12.03,1.99,11.55,1.25,-27.75,-18.375,-23.75,-49.1875,153.625,-0.203491,-0.445923,0.046875,0.870361
-141.688,304.5,-108.812,-12.39,1.79,10.64,1.25,-27.75,-18.375,-22.75,-52.3125,153.625,-0.201294,-0.466248,0.0283813,0.860962
-125.125,302.75,-98,-13.1,1.48,11.09,1.25,-27.75,-18.375,-22,-55.3125,153.625,-0.198975,-0.485901,0.0118408,0.851013
-105.812,294.312,-98,-13.1,1.48,11.09,1.25,-27.75,-18.375,-21.5,-58.125,153.625,-0.196716,-0.504456,-0.00292969,0.840759
-90.1875,280.188,-85.8125,-13.37,1.54,11.78,7.875,-24.875,-20.0625,-21.5,-58.125,153.625,-0.196716,-0.521912,-0.0162354,0.830261
-82.25,268.125,-57.125,-13.78,2.29,12.29,7.875,-24.875,-20.0625,-21.1875,-63.3125,153.312,-0.194153,-0.538574,-0.0286865,0.819397
-80.3125,259.812,-41.5625,-13.61,2.43,11.8,7.875,-24.875,-20.0625,-21.5,-65.75,152.938,-0.194214,-0.554688,-0.0403442,0.808044
-80.4375,255.312,-23.875,-13.35,2.47,11.29,7.875,-24.875,-20.0625,-22.3125,-68.125,152.375,-0.195496,-0.570251,-0.0510254,0.796204
-80.3125,250.5,-23.875,-13.35,2.47,11.29,7.875,-24.875,-20.0625,-23.9375,-68.125,152.375,-0.197937,-0.585205,-0.0604858,0.784058
-78.6875,243.438,-3.6875,-13.03,2.42,10.84,14.1875,-21.25,-19.6875,-26.5625,-72.25,151.625,-0.201599,-0.599548,-0.0684814,0.771484
-75.0625,235.938,41.875,-12.48,2.31,9.65,14.1875,-21.25,-19.6875,-30.5625,-74,149.5,-0.206482,-0.613281,-0.0747681,0.758728
-69.75,227.75,62.3125,-12.56,2.4,9.49,14.1875,-21.25,-19.6875,-36,-75.4375,148.188,-0.212402,-0.626343,-0.0794067,0.74585
-63.5,216.688,77.4375,-12.62,2.99,9.13,14.1875,-21.25,-19.6875,-42.8125,-76.5,146.75,-0.218811,-0.63855,-0.0824585,0.733215
-56.0625,202.75,77.4375,-12.62,2.99,9.13,14.1875,-21.25,-19.6875,-42.8125,-76.5,146.75,-0.218811,-0.649719,-0.0841064,0.721069
-47.9375,186.5,88,-12.41,3.33,8.85,17.5625,-19.5,-15.25,-50.4375,-77.125,145.25,-0.225525,-0.659973,-0.0844727,0.709473
-39.5,170.938,104.312,-11.91,3.53,7.85,17.5625,-19.5,-15.25,-66.1875,-77.125,142.188,-0.239014,-0.669495,-0.0834351,0.698303
-28.75,157.812,113.5,-10.81,3.57,7.21,17.5625,-19.5,-15.25,-73.4375,-76.5625,140.688,-0.245483,-0.678589,-0.0808716,0.6875
-14.9375,147.375,125.688,-10.37,3.47,6.94,17.5625,-19.5,-15.25,-79.875,-75.6875,139.125,-0.251831,-0.687378,-0.0765381,0.67688
0.375,138.188,125.688,-10.37,3.47,6.94,17.5625,-19.5,-15.25,-85.375,-75.6875,139.125,-0.258057,-0.696045,-0.0702515,0.666321
16.0625,130.5,140.438,-10.35,3.41,6.77,18.25,-21,-14.5625,-90,-74.5,137.625,-0.264099,-0.704468,-0.0620117,0.655884
32.0625,122.812,164,-10.32,3.42,6.54,18.25,-21,-14.5625,-93.75,-71.4375,134.625,-0.269653,-0.712524,-0.052124,0.64563
48.1875,112.812,170.812,-10.08,3.66,6.46,18.25,-21,-14.5625,-96.6875,-69.6875,133.25,-0.274658,-0.720154,-0.0406494,0.635803
64.125,101.688,176.188,-9.68,3.88,6.45,18.25,-21,-14.5625,-99.0625,-67.875,132,-0.278931,-0.727234,-0.02771,0.626526
79.0625,88.4375,176.188,-9.68,3.88,6.45,18.25,-21,-14.5625,-99.0625,-67.875,132,-0.278931,-0.727234,-0.0133057,0.618103
92,69,181.75,-8.35,3.82,6.26,17.5625,-22.5,-10.375,-100.75,-66.0625,130.812,-0.282715,-0.733398,0.00274658,0.610535
104.375,49.375,190.125,-8.46,3.49,5.89,17.5625,-22.5,-10.375,-102.938,-62.1875,128.812,-0.288879,-0.742859,0.0204468,0.603516
118,32.4375,199.125,-8.6,3.49,5.94,17.5625,-22.5,-10.375,-103.625,-60.25,128,-0.291077,-0.746338,0.0397339,0.597168
132.062,15.375,205.75,-8.01,3.72,5.79,17.5625,-22.5,-10.375,-104.188,-58.3125,127.375,-0.292358,-0.748962,0.0601807,0.591614
144.75,-1.875,207.688,-8.01,3.72,5.79,17.5625,-22.5,-10.375,-104.188,-58.3125,127.375,-0.292664,-0.750671,0.0814209,0.586731
155.438,-18.375,206.375,-7.37,3.9,5.66,15.0625,-26.5625,-7.1875,-104.625,-56.375,126.938,-0.292053,-0.751526,0.103394,0.582458
164.938,-32.5625,205.188,-6.39,4.14,5.17,15.0625,-26.5625,-7.1875,-105.438,-52.75,126.625,-0.290588,-0.751465,0.126038,0.578796
173.375,-47.8125,204.062,-6.16,3.9,4.81,15.0625,-26.5625,-7.1875,-105.688,-51.0625,126.812,-0.288269,-0.750305,0.149353,0.575928
181,-66.25,203.25,-6.24,3.56,4.42,15.0625,-26.5625,-7.1875,-105.938,-49.375,127.125,-0.284973,-0.748047,0.173462,0.57373
189.875,-84.4375,202.75,-6.24,3.56,4.42,15.0625,-26.5625,-7.1875,-105.938,-49.375,127.125,-0.284973,-0.748047,0.173462,0.57373
201.062,-100.312,199.938,-6.33,3.12,3.78,9.375,-30.5,-4,-106.25,-47.8125,127.75,-0.280396,-0.744812,0.198181,0.570984
215.188,-115.062,193.5,-5.58,2.22,2.42,9.375,-30.5,-4,-107.062,-45,129.938,-0.266113,-0.736267,0.248962,0.57019
230.75,-128.812,184.625,-5.06,2.07,2.36,9.375,-30.5,-4,-107.688,-43.75,131.5,-0.256226,-0.730957,0.274841,0.569641
246,-141.062,176.438,-4.65,2.13,2.61,9.375,-30.5,-4,-108.438,-42.625,133.375,-0.244873,-0.725098,0.300903,0.56897
258.312,-150.062,170.188,-4.65,2.13,2.61,9.375,-30.5,-4,-108.438,-42.625,133.375,-0.244873,-0.725098,0.326965,0.567993
265.938,-154.5,166.75,-4.08,2.27,2.97,5.375,-33.0625,2.5,-109.25,-41.5625,135.438,-0.232605,-0.718628,0.352844,0.566589
268.938,-157.312,165.438,-5.15,1.71,3.38,5.375,-33.0625,2.5,-111,-39.625,139.812,-0.206604,-0.70343,0.378418,0.565063
268,-162.062,164.562,-6.39,0.91,3.25,5.375,-33.0625,2.5,-111.875,-38.8125,142.188,-0.193054,-0.69458,0.40332,0.563599
264.562,-169.312,160.188,-6.11,0.8,2.97,5.375,-33.0625,2.5,-112.688,-38.125,144.688,-0.178711,-0.685059,0.427063,0.562439
259.812,-176.875,148,-6.11,0.8,2.97,5.375,-33.0625,2.5,-112.688,-38.125,144.688,-0.178711,-0.685059,0.44928,0.561646
253.5,-181.562,131.062,-5.44,0.91,2.74,0.1875,-32.25,9.75,-113.5,-37.6875,147.5,-0.163696,-0.675232,0.44928,0.561646
244.125,-183.062,114.875,-4.36,1.25,2.54,0.1875,-32.25,9.75,-114.938,-37.1875,153.312,-0.132874,-0.655151,0.488647,0.560608
230.438,-183,103.812,-4.73,1.39,2.7,0.1875,-32.25,9.75,-115.438,-37.125,156.188,-0.117981,-0.644653,0.505981,0.560852
212.75,-184.875,96.0625,-5.34,1.27,2.12,0.1875,-32.25,9.75,-115.812,-37.125,159.062,-0.103577,-0.63385,0.521606,0.561646
193.688,-185.5,87.0625,-5.34,1.27,2.12,0.1875,-32.25,9.75,-115.812,-37.125,159.062,-0.103577,-0.63385,0.521606,0.561646
178.312,-185.312,73.875,-6.6,0.75,0.35,-1.5625,-30.5625,16.5625,-116.125,-37.25,161.938,-0.0893555,-0.62323,0.535461,0.562927
170,-187.375,59.125,-7.35,0.26,-1.25,-1.5625,-30.5625,16.5625,-116.438,-38.0625,168.125,-0.0588989,-0.602356,0.559265,0.566467
168.25,-196.75,42.125,-7.09,0.07,-1.6,-1.5625,-30.5625,16.5625,-116.625,-38.75,171.625,-0.0415649,-0.592041,0.56958,0.568604
171.188,-206.25,24.1875,-5.82,-0.18,-1.44,-1.5625,-30.5625,16.5625,-116.812,-39.5625,175.375,-0.0229492,-0.58197,0.578979,0.570557
175.938,-211.688,7.75,-5.82,-0.18,-1.44,-1.5625,-30.5625,16.5625,-116.812,-39.5625,175.375,-0.0229492,-0.58197,0.578979,0.570557
178.312,-217.188,-3,-5.28,-0.18,-1.09,-0.5,-27.6875,21.75,-116.938,-40.5625,179.312,-0.00341797,-0.571838,0.587708,0.572388
176.5,-224.875,-6.75,-5.62,-0.02,0.03,-0.5,-27.6875,21.75,-116.875,-42.6875,187.25,0.0366211,-0.549927,0.60321,0.576538
170.312,-231.188,-6.8125,-7.38,-0.06,-0.15,-0.5,-27.6875,21.75,-116.562,-43.75,191.062,0.0562134,-0.53833,0.609802,0.578918
160.625,-231.938,-7.5,-8.09,-0.28,-0.72,-0.5,-27.6875,21.75,-116.188,-44.8125,194.75,0.0753784,-0.527222,0.615479,0.581055
152.812,-224.5,-13.3125,-8.09,-0.28,-0.72,-0.5,-27.6875,21.75,-116.188,-44.8125,194.75,0.0753784,-0.527222,0.615479,0.581055
151.062,-210.188,-25.1875,-8.48,-0.42,-1.11,2.0625,-24.6875,26,-115.938,-45.9375,198.375,0.0942383,-0.51709,0.620239,0.582214
153.625,-192,-40.8125,-6.93,-1.22,-1.41,2.0625,-24.6875,26,-115.938,-48.375,205.562,0.131775,-0.501282,0.627869,0.580688
157.375,-174.875,-56.9375,-6.23,-1.3,-1.21,2.0625,-24.6875,26,-116.125,-49.6875,209.188,0.150696,-0.494751,0.630737,0.578491
158.438,-168.5,-68.125,-5.99,-1.18,-0.94,2.0625,-24.6875,26,-116.125,-51.0625,212.812,0.170166,-0.487793,0.632751,0.576843
152.75,-179.312,-71.8125,-5.99,-1.18,-0.94,2.0625,-24.6875,26,-116.125,-51.0625,212.812,0.170166,-0.487793,0.632751,0.576843
140.812,-204.312,-70.75,-6.55,-1.02,0.14,5.5625,-21.375,27.0625,-115.562,-52.5,216.5,0.190247,-0.479431,0.633667,0.576538
124,-228.625,-68.0625,-8.28,-1.68,0.17,5.5625,-21.375,27.0625,-112.875,-55.625,223.375,0.23114,-0.459717,0.631226,0.580322
107.938,-239.625,-67.6875,-10.06,-2.45,-0.38,5.5625,-21.375,27.0625,-111.062,-57.0625,226.562,0.250916,-0.450073,0.62854,0.582581
98.6875,-233.938,-72.25,-11.39,-2.59,-0.85,5.5625,-21.375,27.0625,-109.25,-58.5625,229.625,0.270142,-0.441589,0.625427,0.583862
96.5,-217.562,-82.0625,-11.39,-2.59,-0.85,5.5625,-21.375,27.0625,-109.25,-58.5625,229.625,0.270142,-0.441589,0.625427,0.583862
98.0625,-202.438,-99.25,-12.36,-2.64,-1.11,10.5,-17.5625,28.1875,-107.625,-60.125,232.688,0.289307,-0.434509,0.621826,0.583862
99.875,-197.188,-123.938,-12.92,-2.62,0.22,10.5,-17.5625,28.1875,-103.938,-63.75,239.312,0.33075,-0.424194,0.611145,0.580688
97.375,-200.062,-151.938,-12.71,-2.84,0.88,10.5,-17.5625,28.1875,-101.562,-65.8125,242.75,0.352905,-0.420715,0.603333,0.578247
89.25,-202.562,-176.312,-12.99,-3.23,1.16,10.5,-17.5625,28.1875,-98.75,-68,246.188,0.374878,-0.418701,0.594421,0.575134
79.1875,-192.75,-193.375,-12.99,-3.23,1.16,10.5,-17.5625,28.1875,-98.75,-68,246.188,0.374878,-0.418701,0.594421,0.575134
71.125,-170.812,-205.25,-13.34,-3.52,1.03,14.5625,-14.25,26.875,-95.8125,-70.1875,249.438,0.395874,-0.418335,0.585022,0.570984
66.6875,-145.75,-214.5,-14.51,-3.85,0.12,14.5625,-14.25,26.875,-89.5,-74.5625,255.75,0.434692,-0.422119,0.566345,0.558655
66.375,-123.938,-225.125,-15.01,-3.75,0.13,14.5625,-14.25,26.875,-85.6875,-76.8125,258.938,0.453369,-0.425842,0.556946,0.550354
67.8125,-107.875,-237.938,-15.64,-3.86,1.28,14.5625,-14.25,26.875,-80.625,-79.125,262.188,0.471985,-0.430359,0.547241,0.540833
68.8125,-97.5,-251.375,-16.58,-3.86,1.28,14.5625,-14.25,26.875,-80.625,-79.125,262.188,0.471985,-0.430359,0.547241,0.540833
66.625,-91.1875,-262.812,-16.8,-4.25,1.5,18.6875,-9.375,24.25,-72.8125,-81.375,265.5,0.490479,-0.435547,0.536926,0.530457
62.625,-84.125,-270.75,-17,-4.94,0.01,18.6875,-9.375,24.25,-2.9375,-85.0625,272.062,0.526062,-0.44751,0.515259,0.507446
61.1875,-74.4375,-274.062,-17.16,-6.04,-2.55,18.6875,-9.375,24.25,-0.375,-85.375,275.312,0.543091,-0.453186,0.5047,0.494934
67.75,-69.0625,-271.312,-16.27,-6.74,-3.2,18.6875,-9.375,24.25,2,-84.3125,278.562,0.560059,-0.457397,0.494995,0.48175
85.625,-68.5625,-261.5,-16.05,-6.74,-3.2,18.6875,-9.375,24.25,2,-84.3125,278.562,0.560059,-0.457397,0.494995,0.48175
112.625,-68.9375,-245.5,-16.31,-7.16,-2.74,21,-4.5625,21,35.6875,-82.625,281.875,0.577148,-0.459412,0.486694,0.467957
139.688,-68.625,-227.625,-18.17,-6.07,3.46,21,-4.5625,21,47.0625,-78.75,288.562,0.610962,-0.457397,0.473877,0.439331
152.062,-68.5625,-213.812,-18.68,-6.03,4.4,21,-4.5625,21,49.5625,-76.8125,291.625,0.626648,-0.455688,0.467651,0.425415
143.188,-66.875,-206.25,-18.8,-6.35,4.31,21,-4.5625,21,51.5,-74.9375,294.5,0.64093,-0.454895,0.460815,0.41217
121.938,-62.25,-202.688,-18.68,-6.35,4.31,21,-4.5625,21,51.5,-74.9375,294.5,0.64093,-0.454895,0.460815,0.41217
101.875,-56.25,-200.625,-18.66,-6.75,1.19,23,3.75,19.25,53.1875,-73.0625,297.125,0.653931,-0.455139,0.453491,0.399414
94.6875,-60.8125,-198.125,-18.15,-6.17,0.28,23,3.75,19.25,54.625,-69.1875,302.125,0.679443,-0.454346,0.437012,0.375549
99.75,-79,-192.062,-17.16,-6.2,1.14,23,3.75,19.25,54.1875,-67.25,304.375,0.692566,-0.451599,0.427917,0.365112
105.75,-97,-176.812,-16.62,-6.42,2.1,23,3.75,19.25,53.3125,-65.5,306.375,0.704834,-0.447754,0.419312,0.356201
105.875,-101.562,-152.938,-16.88,-6.42,2.1,23,3.75,19.25,53.3125,-65.5,306.375,0.704834,-0.447754,0.419312,0.356201
102.875,-93.0625,-128.062,-17.31,-6.23,2.08,20.6875,8.375,15.1875,52.375,-63.9375,308.062,0.71582,-0.443298,0.411987,0.348389
101.188,-75.75,-107.625,-17.87,-5.08,1.52,20.6875,8.375,15.1875,50.875,-61.625,311.062,0.733765,-0.434021,0.402344,0.33374
103.188,-55,-96.25,-18.62,-4.55,1.63,20.6875,8.375,15.1875,50.375,-60.6875,312.625,0.741577,-0.429382,0.39978,0.325317
110.312,-34.5625,-94.8125,-18.42,-3.96,1.92,20.6875,8.375,15.1875,50.0625,-59.8125,314.25,0.749268,-0.424744,0.398132,0.315735
118.75,-19.75,-100.375,-17.85,-3.96,1.92,20.6875,8.375,15.1875,50.0625,-59.8125,314.25,0.749268,-0.424744,0.398132,0.315735
124.75,-13.1875,-106.25,-16.78,-3.59,2.07,21.0625,13.5,11.5,49.8125,-58.9375,316.062,0.756958,-0.420044,0.39679,0.305237
127.75,-12.875,-106.438,-14.72,-3.26,1.58,21.0625,13.5,11.5,49.0625,-57.25,319.562,0.772095,-0.409424,0.394226,0.284302
131.438,-14.8125,-98.6875,-14.03,-2.75,1.45,21.0625,13.5,11.5,48.3125,-56.5625,321.125,0.779358,-0.402832,0.393433,0.274841
137.375,-17.4375,-84.0625,-13.5,-2.19,1.08,21.0625,13.5,11.5,47.375,-55.9375,322.562,0.786438,-0.39502,0.393188,0.266296
144.938,-19.875,-66.3125,-13.36,-2.19,1.08,21.0625,13.5,11.5,47.375,-55.9375,322.562,0.786438,-0.39502,0.393188,0.266296
152.875,-21.75,-48.1875,-13.72,-1.96,1.36,19.5625,16.1875,9.875,46.125,-55.4375,323.812,0.793274,-0.385925,0.393555,0.258728
159.938,-24,-32.75,-14.12,-1.53,1.62,19.5625,16.1875,9.875,43.0625,-54.75,326.062,0.806335,-0.364746,0.395386,0.24585
164.125,-25.25,-21.25,-14.43,-1.19,1.52,19.5625,16.1875,9.875,41.375,-54.5,327.062,0.812378,-0.353455,0.396729,0.240112
164.938,-23.625,-13.6875,-14.27,-1.02,1.18,19.5625,16.1875,9.875,39.75,-54.3125,328,0.817993,-0.342102,0.39856,0.234497
163.812,-17.5625,-8.8125,-14.09,-1.02,1.18,19.5625,16.1875,9.875,39.75,-54.3125,328,0.817993,-0.342102,0.39856,0.234497
161.688,-9.1875,-5.6875,-13.99,-0.85,1.25,20.0625,17.75,5.75,38.125,-54.1875,328.875,0.822998,-0.330933,0.40094,0.228943
158,-2.5,-5.0625,-13.8,-0.55,1.52,20.0625,17.75,5.75,35.25,-54.125,330.625,0.831543,-0.309753,0.406433,0.217651
150.562,2.4375,-5.8125,-12.74,0,2.08,20.0625,17.75,5.75,34,-54.1875,331.438,0.835083,-0.300171,0.409241,0.212341
140,5.25,-4.9375,-11.96,0,1.76,20.0625,17.75,5.75,32.8125,-54.1875,332.125,0.838013,-0.29126,0.411926,0.207825
126.812,5.8125,0.875,-11.59,0,1.76,20.0625,17.75,5.75,32.8125,-54.1875,332.125,0.838013,-0.29126,0.411926,0.207825
113.625,3.125,11.4375,-11.32,-0.09,1,21.5625,21.5,3,31.625,-54.3125,332.625,0.840454,-0.282837,0.414429,0.20459
102.625,0.6875,24.125,-11.48,0.24,-0.01,21.5625,21.5,3,29,-54.625,333.062,0.843994,-0.266785,0.419312,0.201904
94.5,0.9375,35.5625,-11.52,0.46,-0.2,21.5625,21.5,3,27.625,-54.8125,333.125,0.845032,-0.258911,0.422058,0.201782
88.5,3.6875,44.25,-11.49,0.76,-0.57,21.5625,21.5,3,26.3125,-55.125,333.062,0.845642,-0.251404,0.425171,0.202209
83,9,49.6875,-11.34,0.76,-0.57,21.5625,21.5,3,26.3125,-55.125,333.062,0.845642,-0.251404,0.425171,0.202209
77.25,14.1875,52.6875,-11.04,0.88,-0.58,22.25,22.25,0.5625,24.9375,-55.5,333,0.845886,-0.244202,0.428589,0.202881
71.125,19.375,54.8125,-10.74,0.87,-0.58,22.25,22.25,0.5625,22.4375,-56.3125,332.688,0.845032,-0.231262,0.43634,0.205078
63.3125,24.4375,57.125,-10.13,0.61,-1.11,22.25,22.25,0.5625,21.25,-56.75,332.438,0.843994,-0.225647,0.440491,0.206848
54.25,28.6875,60.3125,-10.06,0.36,-1.31,22.25,22.25,0.5625,20.0625,-57.25,332.125,0.842529,-0.220642,0.444641,0.209106
44.8125,30.875,63.5,-10,0.08,-1.31,22.25,22.25,0.5625,20.0625,-57.25,332.125,0.842529,-0.220642,0.444641,0.209106
35.1875,30.6875,65.5625,-9.59,0,-1,22.6875,21.875,-0.1875,18.9375,-57.75,331.688,0.840881,-0.216187,0.448669,0.211853
23.25,32.25,67.8125,-9.22,-0.05,-1.07,22.6875,21.875,-0.1875,16.9375,-58.8125,330.562,0.836426,-0.2099,0.45636,0.219299
8,33.25,70.625,-8.83,-0.11,-1.16,22.6875,21.875,-0.1875,16,-59.25,329.812,0.833679,-0.208191,0.459595,0.224426
-9.3125,29.8125,74.6875,-8.42,-0.21,-1.11,22.6875,21.875,-0.1875,15.0625,-59.6875,328.938,0.83075,-0.207458,0.462097,0.230835
-28.3125,22.625,81.8125,-8.4,-0.26,-1.11,22.6875,21.875,-0.1875,15.0625,-59.6875,328.938,0.83075,-0.207458,0.462097,0.230835
-48.1875,15.1875,90.375,-8.27,-0.36,-1.27,24.1875,21.875,1.0625,14.125,-60.0625,327.75,0.827515,-0.207581,0.463806,0.238831
-66.75,10.9375,97.8125,-8.23,-0.35,-1.55,24.1875,21.875,1.0625,12.3125,-60.6875,325,0.819763,-0.21051,0.465759,0.258362
-82.6875,10.9375,104,-8.29,-0.34,-2.24,24.1875,21.875,1.0625,11.4375,-61,323.375,0.815186,-0.213135,0.46637,0.269409
-95.8125,11.375,108.688,-8.17,-0.53,-2.42,24.1875,21.875,1.0625,10.5625,-61.375,321.688,0.810181,-0.216309,0.466736,0.281067
-106.125,12.4375,111.562,-7.87,-0.53,-2.42,24.1875,21.875,1.0625,10.5625,-61.375,321.688,0.810181,-0.216309,0.466736,0.281067
-113.812,14.5625,114.375,-7.65,-0.56,-2.54,25.25,20,1.5,9.6875,-61.6875,319.938,0.804749,-0.21991,0.467102,0.293091
-120.562,15.0625,119.062,-7.33,-0.69,-2.59,25.25,20,1.5,7.75,-62.3125,316.125,0.792603,-0.2276,0.467224,0.318909
-126.625,12.3125,126.875,-6.84,-1.14,-2.15,25.25,20,1.5,6.5,-62.5625,314,0.78595,-0.231201,0.466675,0.333252
-133.125,6.3125,138.25,-6.86,-1.27,-1.89,25.25,20,1.5,5.0625,-62.6875,311.688,0.778992,-0.234436,0.465332,0.348877
-141.438,-3.5625,151.438,-7.09,-1.31,-1.89,25.25,20,1.5,5.0625,-62.6875,311.688,0.778992,-0.234436,0.465332,0.348877
-153.375,-16.25,164.125,-7.69,-1.22,-1.13,26.0625,17,4,3.4375,-62.625,309.188,0.771606,-0.23761,0.462891,0.365967
-168.75,-29.375,175,-8.39,-1.31,-1.21,26.0625,17,4,0.1875,-62.4375,306.5,0.755371,-0.244385,0.454346,0.404053
-184.75,-37.3125,182.188,-9.25,-1.53,-1.55,26.0625,17,4,-1.125,-61.6875,300.75,0.746277,-0.248596,0.448975,0.42395
-197.062,-36.6875,183.375,-9.65,-1.68,-1.48,26.0625,17,4,-2.3125,-61.375,297.875,0.736389,-0.253723,0.443481,0.44342
-205.312,-27.375,178,-10.13,-1.81,-1.48,26.0625,17,4,-2.3125,-61.375,297.875,0.736389,-0.253723,0.443481,0.44342
-213.25,-12.8125,169.625,-10.12,-2,-1.48,27.875,13.25,5.5625,-3.25,-61.1875,295,0.725769,-0.260071,0.438232,0.462158
-220.562,-0.25,160.188,-9.87,-2.24,-1.45,27.875,13.25,5.5625,-4.375,-61.0625,289.375,0.702698,-0.27594,0.427551,0.497192
-227.312,7.3125,152.625,-9.39,-2.47,-0.85,27.875,13.25,5.5625,-4.75,-61,286.625,0.690491,-0.284607,0.421509,0.514343
-234.438,6.3125,150.312,-8.29,-2.61,-0.89,27.875,13.25,5.5625,-5.125,-60.8125,283.688,0.677795,-0.293091,0.414368,0.531982
-243.25,-2.75,155.938,-7.88,-2.68,-0.89,27.875,13.25,5.5625,-5.125,-60.8125,283.688,0.677795,-0.293091,0.414368,0.531982
-252.562,-17.125,169.125,-7.78,-2.68,-1.04,27.875,6.875,6,-5.5625,-60.5,280.625,0.664307,-0.30072,0.406128,0.55072
-259.938,-31.875,187.938,-8.18,-2.85,-1.69,27.875,6.875,6,-6.125,-60,277.375,0.649841,-0.3125,0.387085,0.591919
-262.875,-43,208.375,-8.83,-2.97,-2.2,27.875,6.875,6,-8,-58.625,270.312,0.617188,-0.316467,0.377258,0.613708
-260.688,-49.125,227.625,-9.58,-3.08,-2.12,27.875,6.875,6,-9.125,-57.8125,266.625,0.599182,-0.319336,0.367859,0.635376
-254.062,-48.5,241.125,-10.57,-3.27,-2.12,27.875,6.875,6,-9.125,-57.8125,266.625,0.599182,-0.319336,0.367859,0.635376
-245.75,-39.875,246.75,-12.44,-3.65,-1.74,29.0625,1.1875,6,-10.3125,-57,262.938,0.580322,-0.321838,0.359131,0.656311
-237.312,-29.8125,243.375,-12.8,-3.79,-1.19,29.0625,1.1875,6,-11.5,-56.3125,259.375,0.541687,-0.327271,0.34314,0.694092
-232.188,-17.6875,233.125,-12.84,-3.91,0.11,29.0625,1.1875,6,-13.1875,-55.125,252.625,0.522278,-0.331177,0.335327,0.710693
-232,-3.3125,219.5,-12.5,-3.81,0,29.0625,1.1875,6,-13.6875,-54.8125,249.375,0.502869,-0.336304,0.327209,0.725891
-236.562,10.75,205.375,-12.06,-3.88,0,29.0625,1.1875,6,-13.6875,-54.8125,249.375,0.502869,-0.336304,0.327209,0.725891
-244,22.25,193.812,-11.68,-4.06,-0.26,28.25,-5.875,5.5625,-14,-54.5625,246.25,0.483276,-0.34259,0.318604,0.73999
-250.688,30.75,185.75,-11.32,-4.3,-0.44,28.25,-5.875,5.5625,-14.125,-54.375,243.188,0.463379,-0.349609,0.309448,0.765564
-255.188,36.75,181.125,-10.58,-4.58,-0.08,28.25,-5.875,5.5625,-14.125,-54.25,237.062,0.422607,-0.364685,0.289917,0.777405
-259.625,39.6875,179.375,-10.37,-4.58,-0.08,28.25,-5.875,5.5625,-14,-54.1875,233.938,0.401428,-0.37207,0.279236,0.78894
-266.125,37.4375,181.375,-10.12,-4.66,-0.07,28.25,-5.875,5.5625,-14,-54.1875,233.938,0.401428,-0.37207,0.279236,0.78894
-273.812,29.75,187.125,-9.95,-4.77,-0.02,26.75,-11.5,2.375,-13.875,-54.0625,230.688,0.379517,-0.378784,0.267822,0.800476
-280.375,19.8125,195.875,-10.25,-4.95,0.05,26.75,-11.5,2.375,-13.75,-53.75,227.375,0.356689,-0.384521,0.24292,0.823792
-285.938,10.1875,205.375,-10.37,-5.05,-0.32,26.75,-11.5,2.375,-13.5625,-52.9375,220.5,0.30835,-0.393066,0.229675,0.835266
-290.375,3.0625,213.688,-10.56,-5.14,-0.32,26.75,-11.5,2.375,-13.4375,-52.4375,216.938,0.28302,-0.396179,0.216248,0.846313
-292.375,-0.6875,219.75,-11.16,-5.68,-0.8,26.75,-11.5,2.375,-13.4375,-52.4375,216.938,0.28302,-0.396179,0.216248,0.846313
-292.188,-2.8125,223.938,-11.36,-5.92,-0.92,23.75,-16.75,-0.875,-13.3125,-51.875,213.375,0.257141,-0.398682,0.202698,0.856689
-289.25,-2.8125,225.312,-11.65,-6.12,-1.09,23.75,-16.75,-0.875,-13.1875,-51.375,209.812,0.231018,-0.400696,0.189209,0.866211
-284.562,0.1875,224.938,-12.12,-6.37,-1.29,23.75,-16.75,-0.875,-12.9375,-50.4375,202.875,0.178894,-0.404053,0.162842,0.882202
-278.562,3.25,221.5,-12.52,-6.66,-0.94,23.75,-16.75,-0.875,-12.75,-50,199.562,0.153198,-0.405579,0.149841,0.888611
-274.062,7.25,216.688,-12.71,-6.73,-0.57,23.75,-16.75,-0.875,-12.75,-50,199.562,0.153198,-0.405579,0.149841,0.888611
-272.125,11.0625,211.25,-12.77,-6.76,-0.42,20.875,-21.6875,-5.375,-12.5,-49.6875,196.25,0.127869,-0.407104,0.136719,0.893982
-272.938,15.1875,206.062,-12.75,-6.74,-0.3,20.875,-21.6875,-5.375,-12.1875,-49.375,193,0.0775757,-0.410217,0.109558,0.902039
-275.375,19.4375,202.688,-12.86,-7.05,-0.6,20.875,-21.6875,-5.375,-11.375,-49,186.625,0.0523682,-0.411743,0.09552,0.904724
-277.25,23.375,201.312,-12.91,-7.34,-0.73,20.875,-21.6875,-5.375,-10.9375,-48.875,183.375,0.0270996,-0.41333,0.0814209,0.906555
-277.188,27.875,201.688,-13.1,-7.52,-0.8,20.875,-21.6875,-5.375,-10.9375,-48.875,183.375,0.0270996,-0.41333,0.0814209,0.906555
-275.312,34.4375,203.25,-13.42,-7.78,-0.89,16.375,-24,-11,-10.5625,-48.875,180.188,0.00164795,-0.415039,0.0675049,0.907288
-272.062,44.8125,205.375,-13.77,-7.94,-0.94,16.375,-24,-11,-10.25,-48.9375,176.938,-0.0238647,-0.417175,0.053833,0.906921
-266.938,57.3125,206.625,-14.11,-8.12,-0.84,16.375,-24,-11,-10,-49.4375,170.5,-0.074585,-0.423401,0.0275269,0.902466
-261.312,71.5625,206,-14.45,-8.22,-0.65,16.375,-24,-11,-9.9375,-49.9375,167.312,-0.0993652,-0.427795,0.0147095,0.898254
-255.938,87.5625,203.125,-15.11,-8.43,-0.37,16.375,-24,-11,-9.9375,-49.9375,167.312,-0.0993652,-0.427795,0.0147095,0.898254
-250.812,103.562,197.438,-15.16,-8.54,-0.16,13.5,-22.875,-16.375,-10,-50.5625,164.188,-0.123474,-0.433167,0.00195312,0.892822
-246.688,117.5,190.438,-15.23,-8.64,0.05,13.5,-22.875,-16.375,-10.125,-51.375,161.125,-0.146851,-0.445923,-0.0238647,0.87854
-242.938,129.562,183.5,-15.23,-8.68,0.46,13.5,-22.875,-16.375,-10.5,-53.3125,155.188,-0.191223,-0.453064,-0.0370483,0.869934
-240.375,139.812,177,-15.12,-8.69,0.54,13.5,-22.875,-16.375,-10.75,-54.4375,152.25,-0.212402,-0.460449,-0.050354,0.860413
-238.188,148.438,171.25,-14.96,-8.59,0.59,13.5,-22.875,-16.375,-10.75,-54.4375,152.25,-0.212402,-0.460449,-0.050354,0.860413
-236,156.312,167.188,-14.78,-8.52,0.59,11.25,-21.5,-22.75,-11.1875,-55.625,149.312,-0.232971,-0.46814,-0.0637817,0.850037
-232.625,164.188,165.125,-14.38,-8.44,0.57,11.25,-21.5,-22.75,-11.75,-56.875,146.375,-0.253052,-0.476013,-0.0771484,0.838684
-228.062,173.062,164.5,-14.56,-8.39,0.69,11.25,-21.5,-22.75,-13.625,-59.5,140.5,-0.291687,-0.49292,-0.103271,0.813171
-221.875,181.625,164.25,-14.94,-8.37,1.14,11.25,-21.5,-22.75,-14.9375,-59.5,140.5,-0.310059,-0.501709,-0.115967,0.799194
-216.312,187.25,161.875,-15.5,-7.87,2.49,11.25,-21.5,-22.75,-14.9375,-60.875,137.562,-0.310059,-0.501709,-0.115967,0.799194
-214.375,190.938,157.312,-15.78,-7.66,2.61,11.375,-18.5,-24.75,-16.5,-62.25,134.625,-0.327759,-0.510315,-0.128723,0.784607
-215.812,191.812,151.812,-15.73,-7.51,2.49,11.375,-18.5,-24.75,-18.25,-63.5625,131.688,-0.34491,-0.526184,-0.154846,0.753967
-216.062,190.562,147.188,-15.34,-7.23,2.24,11.375,-18.5,-24.75,-22.5,-66.0625,125.75,-0.377625,-0.533447,-0.167664,0.738037
-212.875,190.125,145.25,-14.42,-6.75,1.37,11.375,-18.5,-24.75,-25.25,-67.1875,125.75,-0.393188,-0.540833,-0.179932,0.721436
-205.562,192.875,147.312,-14.27,-6.56,0.71,11.375,-18.5,-24.75,-25.25,-67.1875,122.812,-0.393188,-0.540833,-0.179932,0.721436
-192.688,198.875,151.062,-14.34,-6.28,0.46,12.0625,-15.875,-25.875,-28.75,-68.25,119.812,-0.40802,-0.548645,-0.191345,0.704163
-175.938,206.5,153.562,-14.55,-6,0.77,12.0625,-15.875,-25.875,-32.9375,-69.1875,116.812,-0.421875,-0.55719,-0.201721,0.686218
-160.562,212.375,153,-15.01,-5.43,2.42,12.0625,-15.875,-25.875,-43.1875,-70.625,110.938,-0.446228,-0.575073,-0.220581,0.649231
-152.062,213.625,148.625,-15.07,-5.18,3.3,12.0625,-15.875,-25.875,-43.1875,-70.625,110.938,-0.457336,-0.583374,-0.229797,0.630676
-151.312,209.5,142.188,-14.9,-4.89,3.88,12.0625,-15.875,-25.875,-48.6875,-71.0625,108.062,-0.457336,-0.583374,-0.229797,0.630676
-155.812,200.438,136.25,-13.85,-3.99,4.67,14.6875,-12.5625,-27.1875,-54.0625,-71.25,105.188,-0.468201,-0.590515,-0.239075,0.612305
-162.5,187.562,133.938,-13.3,-3.5,4.87,14.6875,-12.5625,-27.1875,-59.0625,-71.125,102.188,-0.479309,-0.596313,-0.248108,0.594238
-169.5,171.625,137.75,-12.93,-2.89,4.96,14.6875,-12.5625,-27.1875,-67.3125,-70.125,95.875,-0.503662,-0.604065,-0.263916,0.558411
-174.688,153.562,147.562,-12.58,-2.19,5.06,14.6875,-12.5625,-27.1875,-67.3125,-70.125,95.875,-0.517212,-0.606323,-0.269714,0.540466
-177.812,136.125,162.062,-12.28,-0.95,4.86,14.6875,-12.5625,-27.1875,-70.4375,-69.125,92.5,-0.517212,-0.606323,-0.269714,0.540466
-176.438,121.375,178.938,-12.4,-0.35,4.69,16.5625,-11.5,-26.25,-72.9375,-67.8125,89,-0.531494,-0.608093,-0.273865,0.522278
-168.688,110.875,196.188,-12.56,0.14,4.51,16.5625,-11.5,-26.25,-75,-66.3125,85.375,-0.546082,-0.609741,-0.276123,0.503723
-154.625,103.375,212.5,-12.58,0.57,4.53,16.5625,-11.5,-26.25,-78.25,-62.625,78.0625,-0.574219,-0.614685,-0.274963,0.465698
-134.812,100.625,226.125,-13.14,1.43,4.91,16.5625,-11.5,-26.25,-78.25,-62.625,78.0625,-0.58667,-0.618652,-0.272156,0.446106
-111.062,104.625,234.938,-13.54,1.84,5.11,16.5625,-11.5,-26.25,-79.8125,-60.5625,74.5,-0.58667,-0.618652,-0.272156,0.446106
-84.5625,111.812,235.875,-14.06,2.2,5.6,16.875,-10.375,-26.6875,-81.4375,-58.5,71.0625,-0.597229,-0.623962,-0.268433,0.426514
-57.6875,119.625,227.438,-14.14,3.04,6.82,16.875,-10.375,-26.6875,-83.1875,-56.5,67.8125,-0.605591,-0.630371,-0.264526,0.407349
-34,126.125,210.75,-13.88,3.51,7.2,16.875,-10.375,-26.6875,-86.6875,-52.8125,64.875,-0.615601,-0.645203,-0.257874,0.371826
-13.1875,130.938,188.875,-13.42,4,7.42,16.875,-10.375,-26.6875,-86.6875,-52.8125,62.25,-0.615601,-0.653137,-0.255432,0.356018
5,131.875,166.438,-12.87,4.43,7.51,16.875,-10.375,-26.6875,-88.4375,-51.3125,59.875,-0.617615,-0.653137,-0.255432,0.356018
21.875,127.5,146.812,-11.45,4.93,7.39,17.25,-12.375,-25.75,-90.1875,-49.875,57.875,-0.617981,-0.661194,-0.253296,0.341797
38.6875,120.938,132.125,-10.88,5.14,7.43,17.25,-12.375,-25.75,-91.875,-48.5625,56.125,-0.616943,-0.669434,-0.251099,0.328918
55.625,114.812,122.938,-10.34,5.2,7.29,17.25,-12.375,-25.75,-95.3125,-47.3125,54.5625,-0.61145,-0.687134,-0.245361,0.306274
71.9375,108.312,119,-9.6,5.15,7.28,17.25,-12.375,-25.75,-95.3125,-46.125,53.1875,-0.61145,-0.696594,-0.241455,0.296082
86.6875,100.562,118.25,-9.62,5.22,7.51,17.25,-12.375,-25.75,-97,-44.875,51.9375,-0.6073,-0.696594,-0.241455,0.296082
98,91.75,118.25,-9.7,5.37,7.72,17.5625,-15,-22.5,-98.6875,-43.625,50.8125,-0.6026,-0.706238,-0.236694,0.28656
104.938,82.3125,116.5,-9.6,5.53,7.98,17.5625,-15,-22.5,-100.25,-42.375,49.8125,-0.597412,-0.71582,-0.231384,0.277771
107.25,70.0625,112,-9.07,5.94,7.93,17.5625,-15,-22.5,-101.688,-41.1875,49,-0.587036,-0.733459,-0.21936,0.263306
105.688,53.6875,106.625,-8.67,6.1,7.65,17.5625,-15,-22.5,-102.938,-40.0625,48.3125,-0.587036,-0.733459,-0.212341,0.258179
102.625,31.8125,101.5,-8.03,6.22,7.28,17.5625,-15,-22.5,-104,-39,47.8125,-0.582275,-0.741089,-0.212341,0.258179
100.625,5.9375,98.1875,-7.36,6.26,6.81,17.5625,-18.375,-18.25,-104.875,-38.0625,47.1875,-0.578735,-0.747253,-0.206482,0.253052
102.062,-19.3125,98.625,-6.73,6.04,5.91,17.5625,-18.375,-18.25,-105.5,-37.1875,47.1875,-0.574707,-0.753479,-0.197144,0.251221
107.625,-42.75,102.125,-6.75,5.83,5.64,17.5625,-18.375,-18.25,-106.062,-36.375,47.4375,-0.570679,-0.765259,-0.173889,0.251526
116.188,-63.8125,106.312,-6.96,5.6,5.44,17.5625,-18.375,-18.25,-106.5,-35.5625,47.875,-0.566406,-0.765259,-0.173889,0.253418
125.938,-81.1875,108.25,-6.88,5.19,5.14,17.5625,-18.375,-18.25,-107,-34.8125,48.5625,-0.561707,-0.771057,-0.160339,0.253418
135.25,-95.5,108.125,-6.74,4.96,5.05,16.1875,-22.0625,-16.75,-107.5,-34.0625,49.4375,-0.556458,-0.776794,-0.145813,0.256287
142.938,-107.875,106.438,-6.51,4.8,5.15,16.1875,-22.0625,-16.75,-108,-33.375,50.5625,-0.550598,-0.78241,-0.130676,0.260071
147.938,-123.438,105,-6.15,4.61,5.32,16.1875,-22.0625,-16.75,-108.5,-32.8125,51.875,-0.544373,-0.787598,-0.0977783,0.270935
149.062,-141.688,105.812,-5.36,4.2,5.19,16.1875,-22.0625,-16.75,-108.875,-32.25,53.4375,-0.538147,-0.792114,-0.0977783,0.277893
146.938,-160.625,108.562,-5.11,4.02,4.79,16.1875,-22.0625,-16.75,-109.188,-31.8125,55.125,-0.531982,-0.795837,-0.079834,0.277893
143.875,-180.5,112.938,-5.01,3.84,4.33,12.5,-25.0625,-13.875,-109.312,-31.3125,57,-0.526062,-0.798645,-0.06073,0.285828
142.438,-201.125,117,-5.51,3.39,3.81,12.5,-25.0625,-13.875,-109.375,-30.9375,59.0625,-0.520142,-0.800537,-0.0404663,0.294861
143.5,-219.75,119.688,-5.94,3.08,3.72,12.5,-25.0625,-13.875,-109.312,-30.5,61.3125,-0.514038,-0.801514,-0.019104,0.315735
147.438,-235.125,119.812,-6.16,2.72,3.7,12.5,-25.0625,-13.875,-109.312,-30.1875,63.75,-0.507385,-0.801819,0.00299072,0.315735
152,-245.25,116.625,-6.32,2.41,3.4,12.5,-25.0625,-13.875,-109.25,-29.875,66.375,-0.499939,-0.801453,0.0254517,0.327209
156.75,-249.125,111.688,-6.18,1.69,2.54,8.6875,-27.75,-11.875,-109.25,-29.6875,69.125,-0.491699,-0.800659,0.0478516,0.338867
162.438,-248.062,106,-6.17,1.37,2.32,8.6875,-27.75,-11.875,-109.312,-29.5,71.9375,-0.482605,-0.799622,0.0699463,0.350464
169.812,-246,99.75,-6.24,1.18,2.3,8.6875,-27.75,-11.875,-109.562,-29.375,74.875,-0.472412,-0.798401,0.0917358,0.361877
175.75,-246.5,92.6875,-6.32,1.06,2.51,8.6875,-27.75,-11.875,-109.812,-29.375,77.9375,-0.461365,-0.796875,0.113098,0.373291
177.875,-248.375,83.5625,-6.96,0.48,2.29,8.6875,-27.75,-11.875,-110.062,-29.4375,81.125,-0.449463,-0.794861,0.133972,0.384949
177.438,-249.25,72.0625,-7.43,0.13,2.07,3.5625,-30.375,-7.75,-110.375,-29.5625,84.4375,-0.436951,-0.792419,0.153992,0.39679
176.25,-249.625,57.0625,-7.72,-0.17,1.88,3.5625,-30.375,-7.75,-110.688,-29.9375,87.9375,-0.423645,-0.789551,0.172913,0.408936
174.75,-248.375,40.125,-7.79,-0.87,1.55,3.5625,-30.375,-7.75,-111,-30.4375,91.5625,-0.409607,-0.786377,0.19043,0.421387
173.188,-243.875,23.625,-7.63,-1.31,1.17,3.5625,-30.375,-7.75,-111.312,-31.0625,95.375,-0.394897,-0.78302,0.206543,0.433838
171.75,-237,9.625,-7.4,-1.76,0.77,3.5625,-30.375,-7.75,-111.625,-31.8125,99.1875,-0.379639,-0.779663,0.221313,0.446106
171.625,-230.25,-0.875,-7.1,-2.14,0.68,1.6875,-30.375,-3.375,-112,-32.625,103,-0.363892,-0.776306,0.235046,0.457947
170.938,-225.25,-8,-7,-2.82,0.81,1.6875,-30.375,-3.375,-112.375,-33.5625,106.875,-0.347778,-0.772766,0.247986,0.469421
167.312,-222.562,-12.3125,-7.23,-3.07,0.88,1.6875,-30.375,-3.375,-112.688,-34.5,110.75,-0.331604,-0.768921,0.260254,0.480652
160.812,-222.188,-16.6875,-7.65,-3.25,0.68,1.6875,-30.375,-3.375,-112.875,-35.4375,114.625,-0.315552,-0.764587,0.271851,0.491882
153.562,-222.125,-23.1875,-8.9,-3.54,-0.3,1.6875,-30.375,-3.375,-113,-36.5,118.438,-0.2995,-0.759766,0.282593,0.503235
147.938,-224.5,-33,-9.34,-3.69,-0.58,-0.5625,-32.25,1.875,-113,-37.625,122.375,-0.283142,-0.754578,0.292358,0.514771
144.5,-228.812,-45.125,-9.9,-3.92,-0.82,-0.5625,-32.25,1.875,-112.938,-38.9375,126.312,-0.266235,-0.748962,0.301208,0.526733
143.688,-231.938,-58.25,-10.54,-4.12,-0.99,-0.5625,-32.25,1.875,-112.812,-40.3125,130.438,-0.248596,-0.743164,0.309021,0.53894
142.875,-233.562,-71.875,-10.99,-4.4,-0.92,-0.5625,-32.25,1.875,-112.562,-41.8125,134.625,-0.230164,-0.737183,0.315796,0.551208
140.125,-236.312,-83.75,-10.71,-4.64,-1.03,-0.5625,-32.25,1.875,-112.25,-43.4375,138.875,-0.211182,-0.730957,0.321655,0.56366
134.562,-238.75,-91.25,-10.52,-4.89,-0.89,0.875,-31.5625,6.75,-111.812,-45.125,143.125,-0.192017,-0.724243,0.326538,0.576172
128,-238.875,-93.6875,-10.68,-5.07,-0.62,0.875,-31.5625,6.75,-111.188,-46.8125,147.188,-0.172974,-0.717041,0.330811,0.588623
120.562,-233.312,-93.75,-12.17,-5.22,-0.79,0.875,-31.5625,6.75,-110.375,-48.5,151.125,-0.154419,-0.709656,0.334473,0.600586
114.562,-223.625,-97.0625,-13.02,-5.11,-0.81,0.875,-31.5625,6.75,-109.5,-50.125,154.875,-0.136292,-0.702332,0.33728,0.611877
110.375,-216.938,-106.875,-13.52,-4.83,-0.64,0.875,-31.5625,6.75,-108.5,-51.75,158.5,-0.117981,-0.695251,0.33905,0.622681
105.938,-213.375,-122.5,-13.97,-4.56,-0.86,4.1875,-31.5625,9.6875,-107.438,-53.5,162.188,-0.0991821,-0.688416,0.339478,0.63324
101,-211.125,-139.938,-13.83,-4.59,-0.92,4.1875,-31.5625,9.6875,-106.25,-55.4375,165.812,-0.0797729,-0.681824,0.33844,0.643616
98.375,-210.625,-155.5,-13.75,-4.68,-0.75,4.1875,-31.5625,9.6875,-104.812,-57.4375,169.562,-0.0596313,-0.675293,0.336121,0.653748
97.4375,-209.438,-167.125,-13.98,-4.9,-0.43,4.1875,-31.5625,9.6875,-103.188,-59.5,173.25,-0.0388794,-0.668762,0.332947,0.663635
97,-208.688,-174.625,-14.31,-5.09,0.04,4.1875,-31.5625,9.6875,-101.312,-61.5625,176.938,-0.0177002,-0.662109,0.329102,0.673035
96.8125,-206.75,-180.688,-14.8,-5.04,-0.1,8.375,-29.0625,10.375,-99,-63.625,180.625,0.00372314,-0.655334,0.324707,0.682007
98.375,-203.125,-186.188,-15.3,-4.9,-0.11,8.375,-29.0625,10.375,-96.375,-65.6875,184.188,0.0254517,-0.648499,0.319946,0.690247
101.812,-198.938,-192.688,-16.02,-4.66,0.21,8.375,-29.0625,10.375,-93.25,-67.6875,187.75,0.0476685,-0.641663,0.314758,0.697754
106.312,-193.375,-200.75,-16.09,-4.62,0.39,8.375,-29.0625,10.375,-89.625,-69.6875,191.375,0.0703735,-0.63501,0.309265,0.704407
110.562,-185.5,-208.875,-16.08,-4.65,0.59,8.375,-29.0625,10.375,-85.3125,-71.625,195,0.0935669,-0.62854,0.303467,0.709961
114.438,-176.438,-215.812,-16.36,-4.59,1.08,14,-26.5,11.1875,-80.125,-73.5,198.562,0.117065,-0.622437,0.297363,0.714478
116.188,-171,-220.625,-16.08,-4.65,2.01,14,-26.5,11.1875,-73.75,-75.1875,202.125,0.140747,-0.616272,0.291016,0.71814
114.938,-172.688,-221.25,-16.04,-4.79,2.25,14,-26.5,11.1875,-65.625,-76.625,205.625,0.164307,-0.60968,0.284302,0.721436
113,-176.5,-216.438,-16.35,-4.99,2.43,14,-26.5,11.1875,-55.625,-77.625,209,0.1875,-0.602356,0.277527,0.724548
112.188,-180,-207.875,-16.94,-5.22,2.39,14,-26.5,11.1875,-44.4375,-78.0625,212.188,0.210083,-0.594238,0.270874,0.7276
114.875,-181.312,-200.125,-18.05,-5.11,2.58,18.875,-23.0625,12,-33.25,-77.9375,215.25,0.232239,-0.585449,0.264587,0.730286
120.812,-177.5,-195.5,-18.46,-4.93,2.77,18.875,-23.0625,12,-23.0625,-77.3125,218.25,0.25415,-0.576355,0.258789,0.7323
128.375,-168.125,-194.312,-18.6,-4.79,2.7,18.875,-23.0625,12,-14.4375,-76.375,221.25,0.276062,-0.567261,0.253601,0.733276
136.125,-153.188,-195.312,-18.78,-4.52,2.36,18.875,-23.0625,12,-7.25,-75.25,224.188,0.297852,-0.558594,0.249023,0.732971
145.688,-135.438,-198.562,-18.89,-4.39,2.27,18.875,-23.0625,12,-1.3125,-74.125,227.25,0.319763,-0.550598,0.245178,0.731079
157.438,-121.312,-203.625,-18.84,-4.31,2.49,24.0625,-17.5,9.5625,3.6875,-72.875,230.312,0.342102,-0.542908,0.242126,0.727722
169.375,-114.125,-208.438,-18.64,-4.38,2.78,24.0625,-17.5,9.5625,8,-71.5625,233.5,0.364929,-0.535095,0.239563,0.723267
179.25,-113,-211,-17.99,-4.43,2.86,24.0625,-17.5,9.5625,11.5,-70.125,236.75,0.388062,-0.526794,0.237427,0.718018
187.188,-118.688,-208.625,-17.56,-4.53,2.61,24.0625,-17.5,9.5625,14.25,-68.5625,239.938,0.411316,-0.517456,0.235535,0.712463
194.188,-127.625,-200,-17.43,-4.56,2.6,24.0625,-17.5,9.5625,16.125,-66.875,243.062,0.434204,-0.506836,0.233948,0.70697
201.688,-134.25,-186.625,-17.53,-4.41,2.97,26.6875,-11.5,8.25,17.25,-65.125,246.062,0.456482,-0.494934,0.233032,0.70166
208.5,-136.375,-171.875,-17.75,-4.2,3.13,26.6875,-11.5,8.25,17.6875,-63.375,248.875,0.477905,-0.482056,0.232849,0.696411
213.438,-133.812,-158.688,-17.85,-3.96,3.22,26.6875,-11.5,8.25,17.6875,-61.625,251.562,0.498413,-0.468506,0.233459,0.69104
215.812,-126.75,-149.375,-17.94,-3.7,3.28,26.6875,-11.5,8.25,17.375,-60.0625,254.125,0.518005,-0.454834,0.234741,0.685303
215.938,-116.375,-144.75,-17.49,-2.92,3.54,26.6875,-11.5,8.25,17,-58.5625,256.625,0.536865,-0.441406,0.236511,0.678955
207.625,-98.1875,-143.062,-16.77,-2.52,3.46,28.1875,-5.875,6.25,16.6875,-57.25,259.062,0.554626,-0.429077,0.238586,0.671814
207.625,-98.1875,-143.062,-16.05,-2.24,3.05,28.1875,-5.875,6.25,16.25,-55.9375,261.438,0.572083,-0.416565,0.24054,0.664307
200.062,-94.375,-138.375,-15.36,-2.07,2.6,28.1875,-5.875,6.25,15.8125,-54.6875,263.688,0.588684,-0.404297,0.242249,0.656738
