Gyro_x,Gyro_y,Gyro_z,Acc_x,Acc_y,Acc_z,Mag_x,Mag_y,Mag_z,Euler_x,Euler_y,Euler_z,Quat_0,Quat_1,Quat_2,Quat_3
4.5,-1.5625,4.8125,0.9,1.78,9.62,-22.5625,-16,-19.5625,-11.5625,6.125,117,0.518677,0.00640869,-0.114197,-0.84729
4.25,-1.3125,4.8125,0.9,1.78,9.62,-22.5625,-16,-19.5625,-11.5625,6.125,117,0.518677,0.00640869,-0.114197,-0.84729
5.125,-1.0625,3.75,0.91,1.79,9.55,-23,-16.25,-20.75,-11.625,6.1875,117.062,0.51825,0.00646973,-0.114624,-0.847473
5.9375,-1.375,2.625,0.94,1.83,9.61,-23,-16.25,-20.75,-11.6875,6.1875,117.062,0.518433,0.0065918,-0.115112,-0.84729
6.625,-1.8125,1.8125,0.97,1.84,9.73,-23,-16.25,-20.75,-11.75,6.1875,117,0.518555,0.00671387,-0.116028,-0.847046
6.5,-1.9375,1.1875,1.01,1.83,9.85,-23,-16.25,-20.75,-11.8125,6.1875,117,0.518616,0.00683594,-0.116028,-0.846985
5.5625,-1.6875,0.75,1.04,1.84,9.9,-23,-16.25,-20.75,-11.8125,6.25,117,0.518677,0.00695801,-0.116394,-0.846985
4.625,-1.375,0.9375,1.16,1.81,9.8,-22.5625,-16.25,-19.5625,-11.875,6.25,117.188,0.517456,0.00689697,-0.117004,-0.847534
4.25,-1.0625,1.625,1.16,1.79,9.78,-22.5625,-16.25,-19.5625,-11.875,6.25,117.125,0.517578,0.00689697,-0.11731,-0.847412
4.5625,-1.3125,2.3125,1.19,1.8,9.81,-22.5625,-16.25,-19.5625,-11.9375,6.25,117.125,0.517761,0.00689697,-0.117615,-0.84729
4.75,-0.9375,2.625,1.25,1.89,9.99,-22.5625,-16.25,-19.5625,-11.9375,6.3125,117.062,0.517944,0.00689697,-0.11792,-0.847107
4.4375,-0.5625,3.0625,1.26,1.87,9.94,-22.5625,-16.25,-19.5625,-12,6.3125,117.062,0.518188,0.00701904,-0.11792,-0.847107
4,-0.6875,3.5625,1.25,1.9,9.92,-23,-16.25,-20.375,-12,6.3125,117.125,0.517822,0.00689697,-0.118469,-0.847046
3.5625,-1.25,4.125,1.23,1.91,9.85,-23,-16.25,-20.375,-12.0625,6.375,117.062,0.518127,0.00689697,-0.118469,-0.847046
3.5,-2.8125,4.125,1.16,1.87,9.74,-23,-16.25,-20.375,-12.0625,6.375,117,0.518433,0.0067749,-0.119202,-0.846619
3.3125,-4.75,4.0625,1.1,1.86,9.79,-23,-16.25,-20.375,-12.0625,6.4375,117,0.518677,0.00646973,-0.119202,-0.846619
2.9375,-6.0625,3.25,1.07,1.85,9.82,-23,-16.25,-20.375,-12.125,6.5,116.938,0.51886,0.00610352,-0.119568,-0.846436
2.5625,-5.9375,2.3125,1,1.83,9.8,-23,-17,-20,-12.125,6.5625,117.188,0.517212,0.00549316,-0.120178,-0.84729
2.6875,-4.875,1.5625,0.91,1.8,9.58,-23,-17,-20,-12.125,6.625,117.188,0.517273,0.00524902,-0.120178,-0.84729
2.75,-3.625,0.9375,0.93,1.83,9.57,-23,-17,-20,-12.125,6.625,117.125,0.517334,0.00506592,-0.120483,-0.847229
2.375,-2.1875,0.75,0.99,1.89,9.71,-23,-17,-20,-12.125,6.625,117.125,0.517395,0.00506592,-0.120483,-0.847168
1.125,-1.25,0.9375,1.06,1.96,9.78,-23,-17,-20,-12.125,6.625,117.125,0.517456,0.00500488,-0.120544,-0.847168
-0.25,-0.25,1.3125,1.11,1.99,9.64,-21.875,-16,-20.375,-12.125,6.625,117.25,0.516602,0.00488281,-0.120544,-0.847717
-0.4375,0.3125,1.625,1.12,1.98,9.51,-21.875,-16,-20.375,-12.125,6.625,117.25,0.516724,0.00482178,-0.120483,-0.847656
0.9375,0.375,1.9375,1.1,1.95,9.41,-21.875,-16,-20.375,-12.125,6.625,117.188,0.516846,0.00488281,-0.120728,-0.847412
2.8125,-0.3125,2.0625,1.02,1.89,9.58,-21.875,-16,-20.375,-12.1875,6.625,117.188,0.516968,0.00494385,-0.120728,-0.847412
4.1875,-0.8125,1.625,0.96,1.83,9.73,-21.875,-16,-20.375,-12.1875,6.6875,117.188,0.51709,0.00506592,-0.120972,-0.847351
4.375,-0.4375,0.6875,0.94,1.81,9.86,-22.5625,-15.5625,-18.75,-12.25,6.625,117.188,0.516846,0.00537109,-0.121338,-0.847412
2.875,0.375,-0.4375,0.92,1.84,9.9,-22.5625,-15.5625,-18.75,-12.25,6.625,117.188,0.516724,0.00549316,-0.121277,-0.847473
0.375,1.125,-1.8125,0.99,1.89,9.83,-22.5625,-15.5625,-18.75,-12.25,6.625,117.25,0.516541,0.00549316,-0.120972,-0.847656
-2.75,1.5625,-2.75,1.05,1.94,9.75,-22.5625,-15.5625,-18.75,-12.25,6.625,117.25,0.516296,0.00537109,-0.120605,-0.847839
-5,1,-3.6875,1.11,2.01,9.65,-22.5625,-15.5625,-18.75,-12.1875,6.625,117.312,0.516296,0.00537109,-0.120605,-0.847839
-5.75,0.625,-4.0625,1.14,1.99,9.48,-23.375,-16.5625,-21.1875,-12.0625,6.5625,117.438,0.515259,0.00494385,-0.119751,-0.848633
-4.875,0.5,-4.5,1.14,1.94,9.23,-23.375,-16.5625,-21.1875,-12.0625,6.5625,117.438,0.514954,0.00494385,-0.119568,-0.848816
-2.75,0.6875,-4.25,1.19,1.88,9.32,-23.375,-16.5625,-21.1875,-12.0625,6.5625,117.5,0.514771,0.00512695,-0.119385,-0.848938
-0.875,2.6875,-3.0625,1.14,1.83,9.42,-23.375,-16.5625,-21.1875,-12.0625,6.5,117.5,0.514709,0.00549316,-0.119141,-0.848999
0.0625,5.1875,-1.3125,1.04,1.82,9.46,-23.375,-16.5625,-21.1875,-12.0625,6.5,117.5,0.514709,0.00549316,-0.119141,-0.848999
0.1875,8.375,0.625,0.98,1.95,9.41,-22.25,-16.25,-20.375,-12.0625,6.375,117.625,0.513916,0.00598145,-0.118774,-0.849548
-0.625,10.75,1.875,0.93,2.06,9.28,-22.25,-16.25,-20.375,-12.0625,6.3125,117.625,0.51416,0.00671387,-0.118225,-0.849487
-1.3125,11.125,2.5,0.97,2.09,9.15,-22.25,-16.25,-20.375,-12,6.1875,117.562,0.514465,0.00744629,-0.117676,-0.849243
-0.9375,10.25,2.8125,1.04,2.03,9.15,-22.25,-16.25,-20.375,-12,6.125,117.5,0.514771,0.00811768,-0.117188,-0.849243
-0.0625,9,3.0625,0.88,1.88,9.69,-22.25,-16.25,-20.375,-12,6,117.5,0.515076,0.00872803,-0.11676,-0.849121
-0.0625,8.75,3.375,0.81,1.77,10.06,-22.5625,-16,-19.1875,-12,5.9375,117.5,0.515015,0.00927734,-0.116394,-0.849182
-1.6875,10.875,4,0.73,1.64,10.51,-22.5625,-16,-19.1875,-12,5.875,117.438,0.515381,0.00994873,-0.115784,-0.84906
-5.1875,16.8125,4.6875,0.27,1.62,10.88,-22.5625,-16,-19.1875,-11.8125,5.4375,117.375,0.516479,0.0122681,-0.112915,-0.848755
-9.1875,25.6875,4.375,0.36,1.75,11.06,-22.5625,-16,-19.1875,-11.8125,5.4375,117.312,0.516479,0.0142212,-0.110413,-0.848694
-13.4375,35.8125,3,0.65,1.91,10.93,-22.5625,-16,-19.1875,-11.6875,5.125,117.25,0.517029,0.0142212,-0.110413,-0.848694
-18.1875,40.625,1.8125,0.33,1.89,10.27,-22.25,-16,-20.375,-11.5,4.75,117.25,0.517212,0.0162964,-0.1073,-0.848938
-21.25,36.875,1.125,1.22,1.73,9.59,-22.25,-16,-20.375,-11.25,4.375,117.25,0.517639,0.0180054,-0.104187,-0.84906
-23.1875,31.875,1.875,1.29,1.86,9.54,-22.25,-16,-20.375,-10.8125,3.875,117.188,0.518616,0.0198975,-0.0982056,-0.849121
-25.25,25.3125,3.8125,1.42,1.92,9.74,-22.25,-16,-20.375,-10.8125,3.875,117.125,0.518616,0.0199585,-0.095459,-0.848999
-27.8125,17.9375,6.75,1.51,1.91,9.9,-22.25,-16,-20.375,-10.5,3.6875,117.062,0.519287,0.0199585,-0.095459,-0.848999
-30.5625,14.3125,10.1875,1.37,1.82,10.68,-21.875,-15.1875,-21.5625,-10.1875,3.5625,116.938,0.520203,0.0195312,-0.0926514,-0.848816
-34.375,16.25,14.0625,1.26,1.64,11.17,-21.875,-15.1875,-21.5625,-9.875,3.4375,116.812,0.521362,0.019104,-0.0894775,-0.848389
-40.25,24.5,18.1875,1.14,1.48,11.34,-21.875,-15.1875,-21.5625,-9,3.25,116.625,0.524902,0.0194092,-0.0805054,-0.847107
-47.375,38.125,23.0625,0.74,1.59,10.52,-21.875,-15.1875,-21.5625,-9,2.9375,116.375,0.524902,0.0194092,-0.0744019,-0.84613
-52.5,53.8125,27.4375,0.29,1.84,9.4,-21.875,-15.1875,-21.5625,-8.5,2.4375,116.125,0.527344,0.020752,-0.0744019,-0.84613
-51.75,64.9375,30.125,0.23,2,8.51,-21.875,-14.75,-21.5625,-7.9375,1.875,115.75,0.529968,0.0228882,-0.0678711,-0.845032
-43.75,67.4375,30.9375,0.54,2.06,8.45,-21.875,-14.75,-21.5625,-7.5,1.25,115.438,0.532593,0.0255737,-0.0617676,-0.843689
-31.8125,60.125,30.1875,0.22,1.8,7.89,-21.875,-14.75,-21.5625,-7,0.75,115.125,0.537415,0.0304565,-0.0535889,-0.841064
-18.25,44.5625,28.125,0.2,1.83,8.49,-21.875,-14.75,-21.5625,-7,0.3125,114.812,0.537415,0.0321045,-0.0517578,-0.839905
-7.9375,29.9375,24.25,0,2,9.38,-21.875,-14.75,-21.5625,-6.9375,0.0625,114.562,0.539246,0.0321045,-0.0517578,-0.839905
-4.5625,17.875,18.5625,-0.19,2.06,10.33,-21.0625,-13.6875,-24.0625,-6.875,0,114.375,0.540588,0.0330811,-0.0506592,-0.839111
-8.8125,10.1875,11.125,-0.34,2.28,11.27,-21.0625,-13.6875,-24.0625,-6.8125,-0.125,114.25,0.541443,0.0333862,-0.0495605,-0.838623
-17.4375,12.125,3,-0.91,2.35,10.29,-21.0625,-13.6875,-24.0625,-6.4375,-0.1875,114.25,0.541565,0.0333862,-0.0452881,-0.838806
-24.8125,15.5,-4.9375,-0.54,2.24,9.66,-21.0625,-13.6875,-24.0625,-6.4375,-0.375,114.25,0.541565,0.0333862,-0.0426636,-0.839294
-26.125,17.25,-10.0625,-0.34,2.16,9.13,-21.0625,-13.6875,-24.0625,-6.1875,-0.5625,114.375,0.540955,0.0334473,-0.0426636,-0.839294
-21.5625,17.6875,-11.875,0.17,1.94,8.36,-20.5,-13,-24.0625,-5.9375,-0.75,114.5,0.539978,0.0337524,-0.0402832,-0.840027
-12.4375,14.5625,-10.9375,0.18,1.97,8.11,-20.5,-13,-24.0625,-5.8125,-0.875,114.625,0.539246,0.0342407,-0.0386963,-0.840515
-1.5625,8.1875,-9.5,0.24,1.97,7.96,-20.5,-13,-24.0625,-5.875,-0.9375,114.688,0.537964,0.0352173,-0.0387573,-0.841309
8.6875,-0.1875,-8.75,0.19,2.03,8.11,-20.5,-13,-24.0625,-5.875,-1,114.75,0.537964,0.0354004,-0.0403442,-0.841736
17,-9.0625,-10.1875,0.03,2.29,9,-20.5,-13,-24.0625,-6.0625,-0.875,114.875,0.53717,0.0354004,-0.0403442,-0.841736
22.625,-16.75,-13.6875,-0.07,2.25,9.43,-20.75,-11.75,-24.875,-6.25,-0.75,115,0.536194,0.0352783,-0.0427246,-0.842285
25.125,-20.875,-17.8125,-0.13,2.13,9.73,-20.75,-11.75,-24.875,-6.5,-0.5625,115.188,0.53479,0.0349731,-0.0453491,-0.843018
25.0625,-20.125,-20.6875,0.2,1.92,9.87,-20.75,-11.75,-24.875,-6.75,-0.375,115.375,0.531616,0.034668,-0.050293,-0.844788
22.6875,-16.5625,-20,0.42,1.76,9.7,-20.75,-11.75,-24.875,-7,-0.25,115.625,0.531616,0.03479,-0.0523071,-0.845459
20.125,-12.5,-15.75,0.55,1.64,9.45,-20.75,-11.75,-24.875,-7.1875,-0.1875,115.75,0.530334,0.03479,-0.0523071,-0.845459
19.4375,-9.0625,-9.5,0.49,1.53,9.33,-20.5,-12.5625,-23.6875,-7.375,-0.0625,115.875,0.529541,0.0350342,-0.0540771,-0.845825
20,-6.8125,-3.625,0.13,1.74,9.57,-20.5,-12.5625,-23.6875,-7.5625,0,115.938,0.529175,0.0354614,-0.0557861,-0.845947
20.1875,-5.25,0.6875,-0.18,1.86,9.49,-20.5,-12.5625,-23.6875,-7.75,0,115.938,0.529175,0.0365601,-0.0592041,-0.845642
21.125,-4.8125,1.6875,-0.38,1.92,9.49,-20.5,-12.5625,-23.6875,-7.9375,0,115.875,0.529175,0.0365601,-0.0610962,-0.84552
22.75,-6,-0.1875,-0.41,1.91,9.51,-20.5,-12.5625,-23.6875,-8.1875,0.0625,115.875,0.529114,0.0371704,-0.0610962,-0.84552
24.8125,-10.25,-3.75,-0.48,1.89,9.6,-19.25,-14.0625,-23.6875,-8.4375,0.1875,116.125,0.527222,0.0374146,-0.0633545,-0.846558
26.6875,-17.0625,-9.375,-0.49,1.88,9.83,-19.25,-14.0625,-23.6875,-8.6875,0.3125,116.25,0.526367,0.0374756,-0.06604,-0.846863
26.5,-22.1875,-16.75,-0.49,1.87,10.01,-19.25,-14.0625,-23.6875,-8.9375,0.5,116.438,0.522949,0.036499,-0.0715942,-0.848572
23.6875,-25.625,-25.0625,-0.41,1.86,10.3,-19.25,-14.0625,-23.6875,-9.1875,0.6875,116.688,0.522949,0.036499,-0.0739136,-0.849976
17.3125,-26.875,-32.375,0,1.89,10.58,-19.25,-14.0625,-23.6875,-9.3125,0.9375,117,0.520386,0.0355225,-0.0739136,-0.849976
8.6875,-27,-36.9375,0.22,1.88,10.42,-21.0625,-14.5,-23.25,-9.4375,1.125,117.438,0.517334,0.0341797,-0.0756836,-0.851746
0.125,-26.0625,-38.4375,0.4,1.83,10.16,-21.0625,-14.5,-23.25,-9.4375,1.3125,117.812,0.514404,0.0325317,-0.0766602,-0.853516
-5.8125,-23.9375,-37.4375,0.54,1.74,9.44,-21.0625,-14.5,-23.25,-9.375,1.5,118.188,0.508911,0.0292358,-0.0773926,-0.856873
-8,-20.3125,-35.3125,0.59,1.78,9.17,-21.0625,-14.5,-23.25,-9.3125,1.625,118.562,0.508911,0.0292358,-0.0775757,-0.858337
-6.1875,-16.75,-32.625,0.62,1.85,9.09,-21.0625,-14.5,-23.25,-9.25,1.75,118.875,0.506409,0.0279541,-0.0775757,-0.858337
-1.5,-12.9375,-30.4375,0.58,1.81,9.06,-21.0625,-14.75,-22.0625,-9.25,1.8125,119.188,0.504089,0.0271606,-0.0779419,-0.85968
4.5,-9.8125,-28.8125,0.46,1.92,9.2,-21.0625,-14.75,-22.0625,-9.3125,1.875,119.5,0.501953,0.0267944,-0.0786743,-0.860901
9.8125,-7.4375,-28.125,0.28,2.08,9.3,-21.0625,-14.75,-22.0625,-9.4375,1.875,119.75,0.499817,0.0271606,-0.0808716,-0.86322
13.8125,-6.875,-29.5625,0.27,2.05,9.41,-21.0625,-14.75,-22.0625,-9.5625,1.875,120.062,0.497559,0.0271606,-0.0808716,-0.864441
15.125,-8,-31.4375,0.33,1.93,9.43,-21.0625,-14.75,-22.0625,-9.75,1.9375,120.375,0.495178,0.0274048,-0.0822144,-0.864441
14.1875,-9.75,-33.4375,0.37,2.01,9.72,-20.5,-16,-22.0625,-9.875,1.9375,120.75,0.491943,0.0274658,-0.0836182,-0.86615
11.5625,-10.5625,-35.625,0.51,1.93,9.76,-20.5,-16,-22.0625,-10,2,121.125,0.489258,0.0274048,-0.0848389,-0.867615
8,-11.125,-35.875,0.57,1.84,9.62,-20.5,-16,-22.0625,-10.0625,2.0625,121.5,0.486511,0.0267944,-0.0866089,-0.870422
5.3125,-12.3125,-34.0625,0.6,1.85,9.61,-20.5,-16,-22.0625,-10.125,2.125,121.812,0.483887,0.0267944,-0.0866089,-0.871704
4.5,-12.875,-31.375,0.61,2.03,9.54,-20.5,-16,-22.0625,-10.1875,2.1875,122.125,0.481506,0.0262451,-0.0874023,-0.871704
5.8125,-12.3125,-28.9375,0.63,2.04,9.47,-21.0625,-16.25,-22.0625,-10.3125,2.25,122.438,0.479248,0.0257568,-0.0884399,-0.872864
9.1875,-11.8125,-26.6875,0.62,2.07,9.5,-21.0625,-16.25,-22.0625,-10.4375,2.3125,122.688,0.477173,0.0253906,-0.0897217,-0.87384
13.25,-10.5625,-24.4375,0.43,2.16,9.74,-21.0625,-16.25,-22.0625,-10.5625,2.375,122.938,0.47522,0.0253296,-0.0912476,-0.874756
16.5625,-8.75,-22.625,0.47,2.08,9.82,-21.0625,-16.25,-22.0625,-10.75,2.4375,123.188,0.47345,0.0255737,-0.0944214,-0.876221
18.8125,-6,-20.5,0.5,2.06,9.89,-21.0625,-16.25,-22.0625,-10.9375,2.4375,123.375,0.471863,0.026062,-0.0944214,-0.876221
19.125,-4.9375,-18.375,0.65,2.08,9.94,-20.0625,-17,-21.5625,-11.125,2.5,123.562,0.470215,0.0265503,-0.0960083,-0.876892
18.1875,-6.25,-15.5625,0.72,2.06,9.83,-20.0625,-17,-21.5625,-11.3125,2.5,123.75,0.468933,0.0269165,-0.0975952,-0.87738
17.0625,-8.6875,-12.6875,0.7,2.09,9.95,-20.0625,-17,-21.5625,-11.5,2.5625,123.875,0.467896,0.0270996,-0.0991821,-0.877808
15.375,-11.5,-9.375,0.6,2.08,10.18,-20.0625,-17,-21.5625,-11.625,2.6875,123.938,0.467102,0.0268555,-0.102173,-0.878174
12.3125,-12.3125,-5.75,0.43,2.03,10.36,-20.0625,-17,-21.5625,-11.75,2.75,124,0.466492,0.0264893,-0.102173,-0.878174
7.9375,-8.75,-2.3125,0.12,2.06,10.23,-20.5,-18.5,-20.375,-11.8125,2.8125,124.125,0.465576,0.026123,-0.103088,-0.878601
3.5625,-2.125,0.25,0.02,2.1,9.97,-20.5,-18.5,-20.375,-11.875,2.875,124.125,0.465515,0.026062,-0.103455,-0.878601
0.625,4.5,2.125,-0.01,2.14,9.56,-20.5,-18.5,-20.375,-11.875,2.8125,124.125,0.465698,0.0264282,-0.102966,-0.878296
0.5625,9.1875,3.4375,-0.03,2.12,9.24,-20.5,-18.5,-20.375,-11.875,2.75,124.062,0.466064,0.0270996,-0.102966,-0.878113
3.625,11.9375,4.4375,0.05,2.13,9,-20.5,-18.5,-20.375,-11.9375,2.625,124,0.466492,0.0280762,-0.102783,-0.878113
8.9375,14.0625,5.5,0.01,2.15,8.92,-20.5,-18.0625,-20.375,-12,2.5,123.938,0.46698,0.0294189,-0.102905,-0.877747
15.0625,14.4375,5.875,-0.12,2.17,8.91,-20.5,-18.0625,-20.375,-12.125,2.375,123.875,0.467468,0.0310059,-0.103455,-0.87738
20.375,12.8125,5.125,-0.48,2.2,9.19,-20.5,-18.0625,-20.375,-12.3125,2.3125,123.812,0.467957,0.0327148,-0.105835,-0.876648
24,11.1875,1.75,-0.4,2.2,9.44,-20.5,-18.0625,-20.375,-12.5625,2.1875,123.75,0.468079,0.0344849,-0.105835,-0.876526
24.9375,10.5,-3.375,-0.36,2.14,9.66,-20.5,-18.0625,-20.375,-12.8125,2.0625,123.812,0.467834,0.0363159,-0.107239,-0.876526
24.1875,10.875,-8.125,-0.25,2,9.68,-19.6875,-17.75,-20,-13.0625,1.9375,123.875,0.467102,0.038147,-0.108582,-0.876648
23.6875,11.875,-12.3125,-0.03,1.89,9.57,-19.6875,-17.75,-20,-13.25,1.8125,124,0.466248,0.0400391,-0.109863,-0.876892
24,13.75,-15.1875,0.11,1.88,9.51,-19.6875,-17.75,-20,-13.5,1.625,124.125,0.465149,0.0421753,-0.112183,-0.877563
24.875,16.375,-16.6875,0.28,1.84,9.46,-19.6875,-17.75,-20,-13.75,1.4375,124.25,0.463989,0.0444946,-0.112183,-0.87793
26.25,18.5,-16.9375,0.44,1.77,9.42,-19.6875,-17.75,-20,-14,1.25,124.375,0.462769,0.0470581,-0.113342,-0.87793
27.6875,19.8125,-15.25,0.83,1.68,9.8,-19.6875,-19.25,-20.375,-14.3125,1,124.625,0.460754,0.0496216,-0.114624,-0.878723
28.0625,20.1875,-12.0625,0.93,1.68,10.09,-19.6875,-19.25,-20.375,-14.5625,0.8125,124.75,0.4599,0.0523682,-0.115845,-0.878784
25.875,19.8125,-7.875,0.92,1.71,10.1,-19.6875,-19.25,-20.375,-14.8125,0.625,124.75,0.459412,0.0549316,-0.117004,-0.878601
22.875,18.5,-4.3125,0.76,1.72,9.87,-19.6875,-19.25,-20.375,-15,0.4375,124.812,0.459167,0.057251,-0.11792,-0.878601
21.3125,16.6875,-2.875,0.47,1.83,9.55,-19.6875,-19.25,-20.375,-15.25,0.25,124.812,0.458984,0.0593262,-0.118835,-0.878418
21.4375,14.25,-3.75,0.39,1.9,9.61,-19,-20.75,-18.75,-15.4375,0.125,125.125,0.456177,0.0609131,-0.120056,-0.879639
22.375,13.25,-5.875,0.42,1.88,9.82,-19,-20.75,-18.75,-15.6875,0,125.188,0.45575,0.0628052,-0.121155,-0.879578
22.125,13.875,-7.875,0.63,1.76,10.15,-19,-20.75,-18.75,-15.875,-0.125,125.25,0.4552,0.0647583,-0.122253,-0.879578
19.3125,14.9375,-8.1875,0.64,1.78,10.15,-19,-20.75,-18.75,-16.0625,-0.3125,125.312,0.454651,0.0667114,-0.123047,-0.879639
15.125,14.1875,-7.375,0.6,1.83,10.02,-19,-20.75,-18.75,-16.1875,-0.4375,125.375,0.454163,0.0684204,-0.123596,-0.879639
11.625,12.125,-6.875,0.54,1.85,9.89,-17.5,-21.0625,-20.5,-16.3125,-0.5625,125.75,0.451172,0.069519,-0.124146,-0.881042
9.1875,10.25,-7.125,0.48,1.96,10.05,-17.5,-21.0625,-20.5,-16.4375,-0.6875,125.812,0.450684,0.0706787,-0.12439,-0.881104
7.125,9.6875,-7.375,0.62,1.99,10.14,-17.5,-21.0625,-20.5,-16.3125,-0.6875,125.812,0.450439,0.0701904,-0.123718,-0.881409
4.5,9.5625,-7.0625,0.74,2.02,10.2,-17.5,-21.0625,-20.5,-16.1875,-0.625,125.875,0.450195,0.069519,-0.122925,-0.881653
1.5,8.3125,-5.8125,0.82,2.02,10.19,-17.5,-21.0625,-20.5,-16.0625,-0.625,125.875,0.450073,0.0685425,-0.122131,-0.881958
-0.8125,4.625,-3.9375,0.74,2.07,10.07,-18.5625,-21.75,-18.5,-15.9375,-0.5,126.188,0.447937,0.0669556,-0.12146,-0.88324
-2.9375,-0.375,-2.1875,0.62,2.16,10.2,-18.5625,-21.75,-18.5,-15.75,-0.375,126.188,0.447998,0.0653687,-0.120789,-0.883423
-5.9375,-3.4375,-0.8125,0.4,2.3,10.16,-18.5625,-21.75,-18.5,-15.625,-0.25,126.188,0.448059,0.0639038,-0.120117,-0.883667
-9.5,-3.5625,-0.0625,0.22,2.35,10.15,-18.5625,-21.75,-18.5,-15.5,-0.25,126.188,0.44812,0.0632324,-0.119568,-0.883789
-13.3125,-1.3125,0.625,0.19,2.4,9.92,-18.5625,-21.75,-18.5,-15.375,-0.25,126.188,0.448181,0.0626221,-0.118591,-0.883789
-16.0625,2.9375,2.8125,0.07,2.38,9.76,-18.5625,-21.5,-19.25,-15.25,-0.25,126.312,0.447266,0.0620728,-0.117371,-0.884521
-15.8125,8.625,6,-0.02,2.41,9.84,-18.5625,-21.5,-19.25,-15.0625,-0.3125,126.25,0.447876,0.0620728,-0.115906,-0.884399
-14.5,14.1875,10,-0.03,2.46,10.34,-18.5625,-21.5,-19.25,-14.9375,-0.4375,126.125,0.448853,0.062439,-0.114319,-0.884033
-14.5625,19.75,13.875,0.2,2.48,10.54,-18.5625,-21.5,-19.25,-14.8125,-0.5625,126,0.450134,0.0632324,-0.11261,-0.883545
-17.5,23.375,18.625,0.24,2.48,10.44,-18.5625,-21.5,-19.25,-14.625,-0.75,125.75,0.451843,0.0641479,-0.110474,-0.882874
-22.8125,23.3125,24.3125,0.33,2.43,10.21,-18.1875,-21.75,-20.875,-14.4375,-0.875,125.75,0.452026,0.0645752,-0.108154,-0.883057
-28.3125,20.3125,29.75,-0.21,2.8,9.32,-18.1875,-21.75,-20.875,-14.125,-1,125.438,0.45459,0.0646973,-0.105469,-0.88208
-31.9375,16,32.5625,-0.63,2.97,8.91,-18.1875,-21.75,-20.875,-13.8125,-1.0625,125.125,0.457336,0.0643921,-0.1026,-0.881042
-31.5625,13.4375,31.125,-1,3.04,8.5,-18.1875,-21.75,-20.875,-13.5625,-1.125,124.812,0.4599,0.0639038,-0.0999146,-0.880005
-26.25,14.75,26.3125,-1.11,3.01,8.22,-18.1875,-21.75,-20.875,-13.3125,-1.25,124.5,0.462158,0.0637817,-0.0975342,-0.87915
-17.0625,19.125,21,-0.54,2.62,8.59,-18.1875,-19.5625,-19.6875,-13.125,-1.375,124.312,0.463684,0.0643311,-0.0956421,-0.878479
-8,23.1875,18.375,-0.09,2.49,9.04,-18.1875,-19.5625,-19.6875,-13.0625,-1.5625,124.125,0.465271,0.0655518,-0.0942383,-0.877686
-1.0625,28.75,20.0625,0.25,2.21,9.5,-18.1875,-19.5625,-19.6875,-13.0625,-1.75,123.875,0.46698,0.0675049,-0.0931396,-0.87677
1.8125,33.625,26.875,0.68,1.93,9.94,-18.1875,-19.5625,-19.6875,-13.0625,-2,123.562,0.469238,0.0698242,-0.0921021,-0.875488
-2.75,34.5,36.75,0.19,2.28,10.26,-18.1875,-19.5625,-19.6875,-13.0625,-2.25,123.188,0.472229,0.0720215,-0.0907593,-0.87384
-12.0625,36.6875,44.0625,-0.2,2.33,10.12,-19,-19.5625,-19.6875,-13,-2.5,122.812,0.475098,0.0737915,-0.0887451,-0.872375
-22.1875,41.0625,47.4375,-0.41,2.2,9.54,-19,-19.5625,-19.6875,-12.8125,-2.8125,122.312,0.479004,0.0756226,-0.0857544,-0.870361
-28.3125,45.875,47.75,-0.67,1.9,8.29,-19,-19.5625,-19.6875,-12.5625,-3.125,121.812,0.483032,0.0774536,-0.0820923,-0.868286
-27.25,51,46.6875,-0.53,1.68,8.01,-19,-19.5625,-19.6875,-12.3125,-3.5,121.312,0.487,0.0797729,-0.0783081,-0.866211
-21.75,54.375,46.5625,-0.36,1.53,7.82,-19,-19.5625,-19.6875,-12.125,-3.9375,120.75,0.490906,0.0825806,-0.0747681,-0.864075
-14.4375,57.75,48.125,-0.32,1.4,7.72,-18.1875,-18.875,-22.5,-12.0625,-4.375,120.312,0.494385,0.0858154,-0.0717163,-0.862
-7.875,60.125,50.8125,-0.14,1.07,7.93,-18.1875,-18.875,-22.5,-12,-4.875,119.75,0.498535,0.0895996,-0.0690308,-0.859497
-3.3125,61.25,54,-0.17,0.93,8.31,-18.1875,-18.875,-22.5,-12.0625,-5.3125,119.125,0.502808,0.0935669,-0.0665894,-0.85675
-1.625,58.625,57,-0.28,0.69,8.69,-18.1875,-18.875,-22.5,-12.0625,-5.75,118.562,0.507263,0.0974121,-0.0644531,-0.853821
-2.375,54.3125,58.0625,-0.18,0.32,9,-18.1875,-18.875,-22.5,-12.125,-6.1875,117.938,0.51178,0.100891,-0.0623779,-0.850891
-4.5,50.375,58.375,0.66,-0.49,9.65,-18.5625,-17,-23.375,-12.1875,-6.5,117.312,0.516235,0.104065,-0.0604248,-0.847961
-8.25,49.5625,62.1875,0.91,-0.83,9.78,-18.5625,-17,-23.375,-12.1875,-6.875,116.625,0.520996,0.106934,-0.0581665,-0.844849
-11.625,53.375,70.6875,1.27,-1.26,9.73,-18.5625,-17,-23.375,-12.125,-7.25,115.875,0.526428,0.109863,-0.0556641,-0.841248
-14.375,58.9375,83.875,1.4,-1.7,9.4,-18.5625,-17,-23.375,-12.125,-7.625,115,0.532776,0.112976,-0.0527954,-0.837036
-14.0625,66.6875,99.625,0.53,-2.22,8.26,-18.5625,-17,-23.375,-12.125,-8.0625,114,0.540222,0.116638,-0.0497437,-0.831909
-7.9375,73.9375,113.688,-0.22,-2.4,7.74,-17.75,-16.5625,-23.75,-12.25,-8.5,112.812,0.54834,0.120972,-0.046936,-0.826111
3.125,77.75,122.125,-0.93,-2.39,7.84,-17.75,-16.5625,-23.75,-12.5,-9,111.562,0.557129,0.126038,-0.0447998,-0.81958
13.0625,81,123.688,-2.14,-2.05,9.69,-17.75,-16.5625,-23.75,-12.8125,-9.5,110.312,0.565796,0.131775,-0.0432129,-0.812805
13.4375,86.75,117.562,-2.54,-2.34,10.22,-17.75,-16.5625,-23.75,-13.1875,-10.0625,109.062,0.573975,0.137939,-0.0413208,-0.806091
1,87.625,104.562,-2.61,-3.09,10.18,-17.75,-16.5625,-23.75,-13.375,-10.625,107.938,0.58136,0.143616,-0.0383301,-0.799927
-14.375,79.8125,89.4375,-2.73,-3.72,10.2,-17.0625,-14.5,-25.375,-13.4375,-11.1875,107,0.587769,0.14801,-0.0345459,-0.794617
-25.4375,64.875,75.25,-3.56,-3.91,10.93,-17.0625,-14.5,-25.375,-13.375,-11.625,106.188,0.593323,0.150879,-0.0305176,-0.7901
-32.375,49.375,58.5625,-3.61,-4.12,11.24,-17.0625,-14.5,-25.375,-13.1875,-11.9375,105.5,0.597778,0.152405,-0.0266724,-0.786621
-36.5625,37.5,39.8125,-3.26,-4.35,11.45,-17.0625,-14.5,-25.375,-12.9375,-12.25,105.062,0.600952,0.152954,-0.0228271,-0.78418
-39.75,29.8125,25,-2.76,-4.43,11.78,-17.0625,-14.5,-25.375,-12.625,-12.4375,104.75,0.60321,0.152832,-0.0189819,-0.782593
-43.875,24.6875,17.375,-1.58,-4.53,12.06,-16.6875,-12.5625,-27.875,-12.25,-12.6875,104.438,0.605103,0.152222,-0.0150146,-0.781311
-48.6875,22.125,17.625,-1.45,-4.45,12.21,-16.6875,-12.5625,-27.875,-11.8125,-12.8125,104.188,0.606873,0.151184,-0.0109253,-0.780212
-52.3125,21.75,23.75,-1.65,-4.3,12.39,-16.6875,-12.5625,-27.875,-11.375,-13,103.875,0.609131,0.149902,-0.00665283,-0.778748
-55.5,22.5625,32.375,-2.37,-4.07,12.72,-16.6875,-12.5625,-27.875,-10.9375,-13.125,103.5,0.612,0.148499,-0.0022583,-0.776794
-59.75,22.875,36.875,-4.45,-3.92,12.75,-16.6875,-12.5625,-27.875,-10.4375,-13.3125,103.062,0.615173,0.146912,0.00238037,-0.774597
-63.6875,19.25,32.375,-5.23,-3.87,12.96,-16.375,-10,-29.0625,-9.9375,-13.4375,102.438,0.61969,0.144836,0.00744629,-0.771301
-65.875,11.25,19,-5.88,-3.71,13.44,-16.375,-10,-29.0625,-9.3125,-13.5,102.125,0.621765,0.142151,0.012146,-0.770142
-68.1875,-0.875,-0.3125,-6.37,-3.46,14.42,-16.375,-10,-29.0625,-8.6875,-13.5,102.062,0.622559,0.138489,0.0165405,-0.770081
-71.75,-18.75,-24.4375,-6.34,-3.29,15.13,-16.375,-10,-29.0625,-7.9375,-13.375,102.25,0.621826,0.133423,0.0204468,-0.771423
-77.3125,-40.3125,-49.875,-6.22,-3.03,15.93,-16.375,-10,-29.0625,-7.0625,-13,102.625,0.619507,0.126648,0.0239258,-0.774353
-85.3125,-61.375,-75.375,-5.98,-2.68,16.58,-16.1875,-8.0625,-29.0625,-6,-12.5,103.188,0.616516,0.117981,0.0272827,-0.777954
-94.875,-76.3125,-99.0625,-5.34,-1.8,17.1,-16.1875,-8.0625,-29.0625,-4.875,-11.875,104.062,0.611084,0.107788,0.0305176,-0.783569
-105.562,-87.5,-120.812,-5.05,-1.36,16.93,-16.1875,-8.0625,-29.0625,-3.625,-11.125,105.188,0.604248,0.0962524,0.0340576,-0.790222
-115.062,-100.938,-140,-5.19,-1.07,16.52,-16.1875,-8.0625,-29.0625,-2.25,-10.1875,106.438,0.596008,0.0831909,0.0377197,-0.797791
-121.5,-124.25,-158.625,-5.66,-0.71,16.02,-16.1875,-8.0625,-29.0625,-0.8125,-9.0625,107.875,0.586426,0.0681763,0.0407715,-0.806091
-124.5,-161.562,-181.938,-7.58,0.74,16.02,-17.25,-5.1875,-29.5,0.625,-7.5,109.562,0.575195,0.050354,0.0422974,-0.815369
-125.688,-209.062,-217.188,-8.14,1.42,15.88,-17.25,-5.1875,-29.5,2.0625,-5.4375,111.562,0.561279,0.0290527,0.041687,-0.82605
-126.812,-258.688,-264.688,-8.74,2.22,15.6,-17.25,-5.1875,-29.5,3.4375,-2.8125,114.062,0.543762,0.00408936,0.0389404,-0.838318
-129.688,-309.375,-321.625,-8.87,3.05,15.43,-17.25,-5.1875,-29.5,4.75,0.375,117,0.521606,-0.0248413,0.0339966,-0.852112
-138.625,-362.5,-384.188,-8.95,5.36,15.99,-17.25,-5.1875,-29.5,6,4.1875,120.625,0.494202,-0.0580444,0.0271606,-0.867004
-156,-410.938,-451.562,-8.59,6.8,15.27,-20,-5.5,-26.75,7.0625,8.625,124.812,0.460632,-0.0955811,0.019165,-0.882202
-176.188,-445.188,-521.938,-7.56,7.97,13.75,-20,-5.5,-26.75,7.875,13.5625,129.75,0.420288,-0.13623,0.0107422,-0.897034
-188.375,-461.938,-590.375,-2.32,8.84,9.44,-20,-5.5,-26.75,8.25,18.8125,135.438,0.373047,-0.17804,0.00183105,-0.910583
-185,-468.125,-645.125,1.09,8.45,7.08,-20,-5.5,-26.75,7.875,24.1875,141.688,0.319946,-0.219482,-0.00836182,-0.921631
-163.75,-479.438,-670.375,3.37,8.38,4.85,-20,-5.5,-26.75,6.4375,29.5625,148.25,0.263733,-0.260071,-0.0209351,-0.92865
-128.438,-504.938,-665.062,5.01,8.54,3.53,-24.375,-11.0625,-19.375,3.9375,35,154.812,0.207336,-0.300598,-0.0366211,-0.930237
-87,-536.312,-639.375,7.26,7.97,3.33,-24.375,-11.0625,-19.375,0.125,40.4375,161.25,0.152832,-0.341431,-0.0552979,-0.92572
-48.5625,-551.75,-602.75,10.77,6.32,4.48,-24.375,-11.0625,-19.375,-5,45.5625,167.312,0.101501,-0.38147,-0.0758057,-0.915649
-16.6875,-542.062,-550.688,13.32,3.21,4.05,-24.375,-11.0625,-19.375,-11.5,49.9375,173,0.0547485,-0.419128,-0.0966797,-0.901123
19.5625,-502.688,-455.188,8.61,5.27,9.19,-24.375,-11.0625,-19.375,-18.6875,53.5,177.812,0.0166626,-0.452881,-0.116455,-0.883789
27.75,-475.562,-368.875,7.67,3.03,10.06,-21.875,-22.875,-9.6875,-26.1875,56.4375,181.875,-0.0144653,-0.48407,-0.133118,-0.864746
-1.0625,-430.125,-314.625,8.64,1.83,8.1,-21.875,-22.875,-9.6875,-33.5625,58.5,185.688,-0.0422974,-0.511414,-0.145264,-0.845886
-14.5,-381.062,-248.875,5.87,3.67,9.86,-21.875,-22.875,-9.6875,-40.4375,60,189,-0.0653076,-0.535156,-0.153503,-0.828125
-20.125,-338.625,-179.812,3.92,4.29,9.72,-21.875,-22.875,-9.6875,-46.5,61.1875,191.688,-0.0831909,-0.556091,-0.158264,-0.811646
-33.75,-297.688,-139.375,0.9,4.09,7.12,-21.875,-22.875,-9.6875,-51.8125,62.0625,194,-0.0982666,-0.574158,-0.160339,-0.796814
-42.6875,-269.25,-114.688,-0.26,4.35,6.09,-15.5625,-29.6875,-0.75,-56.6875,62.6875,196.188,-0.111633,-0.59021,-0.160767,-0.783142
-46.6875,-255.25,-105.562,-1.01,4.61,5.4,-15.5625,-29.6875,-0.75,-61.4375,63.0625,198.312,-0.12439,-0.605042,-0.160461,-0.769836
-42.4375,-242.438,-107.375,-1,4.72,5.24,-15.5625,-29.6875,-0.75,-66.0625,63.1875,200.438,-0.13678,-0.618774,-0.160583,-0.756714
-33.6875,-230.5,-111.562,-0.07,4.44,5.58,-15.5625,-29.6875,-0.75,-70.625,63,202.625,-0.148804,-0.63147,-0.16156,-0.743652
-25.6875,-218.125,-110.938,0.07,4.43,6.09,-15.5625,-29.6875,-0.75,-74.9375,62.5625,204.688,-0.160095,-0.643188,-0.163086,-0.730835
-21.8125,-196.188,-105.375,0.57,4.29,6.6,-13.1875,-31.375,1.1875,-78.6875,62,206.625,-0.17041,-0.653442,-0.164795,-0.718933
-22.0625,-157.125,-93.8125,2.52,3.53,7.34,-13.1875,-31.375,1.1875,-81.5625,61.375,208.375,-0.179504,-0.661255,-0.166321,-0.709106
-25.625,-110.688,-71.75,2.77,3.2,7.23,-13.1875,-31.375,1.1875,-83.375,60.8125,209.75,-0.186768,-0.666443,-0.167114,-0.702148
-31.1875,-68.1875,-39.5625,2.14,3.08,6.97,-13.1875,-31.375,1.1875,-84.3125,60.5,210.688,-0.191833,-0.669434,-0.166443,-0.69812
-33.5625,-34.875,-6.4375,0.94,3.19,6.85,-13.1875,-31.375,1.1875,-84.625,60.5,211.188,-0.194641,-0.670837,-0.164246,-0.696472
-32.4375,-8.6875,16.5625,-1.89,3.5,6.81,-10.875,-32.0625,3.875,-84.4375,60.6875,211.312,-0.195618,-0.671082,-0.161255,-0.696716
-30.3125,9.9375,24.875,-3.05,3.66,7.15,-10.875,-32.0625,3.875,-83.9375,60.875,211.312,-0.19574,-0.670288,-0.158203,-0.69812
-28.625,23.0625,18.5625,-3.49,3.8,7.7,-10.875,-32.0625,3.875,-83.1875,61.0625,211.25,-0.195923,-0.668701,-0.155884,-0.700073
-30.5,32.8125,1.25,-3.25,3.75,7.91,-10.875,-32.0625,3.875,-82.3125,61,211.312,-0.197144,-0.66626,-0.154541,-0.702393
-37.125,38.4375,-17.0625,-2.05,3.71,7.59,-10.875,-32.0625,3.875,-81.3125,60.8125,211.625,-0.199768,-0.663147,-0.153931,-0.704712
-43.5,41.375,-31.25,-1.28,3.87,7.75,-10.875,-32,2,-80.3125,60.4375,212.062,-0.203491,-0.659546,-0.153809,-0.707092
-47,46.5,-39.875,-0.66,4.02,8,-10.875,-32,2,-79.1875,60,212.625,-0.207886,-0.655396,-0.153992,-0.709595
-49.1875,54.5625,-41.5,-0.48,4.07,8.22,-10.875,-32,2,-77.9375,59.5,213.188,-0.212402,-0.650696,-0.154297,-0.712524
-51.25,65.625,-38.5625,-0.63,4.21,8.9,-10.875,-32,2,-76.5625,59,213.625,-0.216675,-0.645325,-0.15448,-0.716064
-54.125,79.4375,-34.0625,-0.89,4.25,9.49,-10.875,-32,2,-74.9375,58.4375,214,-0.220642,-0.639038,-0.154541,-0.720459
-59.25,98.625,-29.8125,-0.92,4.34,10.15,-11.1875,-32.375,1.5,-73,57.9375,214.312,-0.224365,-0.631531,-0.154358,-0.725952
-68.6875,122.375,-27.5,-0.39,4.75,10.61,-11.1875,-32.375,1.5,-70.6875,57.3125,214.562,-0.228149,-0.622314,-0.153931,-0.732788
-81.625,146.062,-27.375,-0.01,5.27,10.75,-11.1875,-32.375,1.5,-68,56.5625,214.75,-0.232178,-0.611267,-0.153137,-0.740906
-93.4375,163.688,-30.5625,0.56,5.74,10.51,-11.1875,-32.375,1.5,-65.125,55.625,215,-0.236755,-0.598694,-0.152039,-0.749878
-102.375,174.625,-37.5625,1.38,6.12,10.29,-11.1875,-32.375,1.5,-62.1875,54.5625,215.312,-0.242065,-0.585022,-0.15094,-0.759155
-107.188,183.125,-46.125,3.5,6.81,10.15,-9.375,-33.375,-2.6875,-59.3125,53.3125,215.75,-0.247925,-0.570435,-0.150085,-0.768555
-108.688,189.438,-52.5625,4.92,6.95,10.37,-9.375,-33.375,-2.6875,-56.5625,51.9375,216.188,-0.25415,-0.555054,-0.149475,-0.777771
-107.938,197.75,-53.4375,6.63,6.84,10.84,-9.375,-33.375,-2.6875,-53.9375,50.375,216.562,-0.260193,-0.539001,-0.149109,-0.787109
-105.438,213.75,-44.625,8.21,6.41,11.72,-9.375,-33.375,-2.6875,-51.3125,48.8125,216.75,-0.265198,-0.52179,-0.148804,-0.797058
-104.75,233.625,-22.1875,9.4,5.52,14.11,-9.375,-33.375,-2.6875,-48.5,47.1875,216.688,-0.268311,-0.503296,-0.147888,-0.807983
-107.625,257,8.5,9.71,5.63,15.74,-8.1875,-32.5625,-6.75,-45.5,45.5625,216.312,-0.269043,-0.483276,-0.145996,-0.82019
-117.375,286.438,37.0625,10.12,6.02,16.79,-8.1875,-32.5625,-6.75,-42.1875,43.8125,215.562,-0.267639,-0.46106,-0.142822,-0.833923
-136.75,316.875,59.5,10.47,6.3,16.65,-8.1875,-32.5625,-6.75,-38.625,41.8125,214.625,-0.264832,-0.436218,-0.137939,-0.848877
-158.312,339.062,74.25,11.01,5.86,14.12,-8.1875,-32.5625,-6.75,-34.9375,39.625,213.625,-0.26123,-0.408997,-0.131409,-0.864441
-166.125,353.375,79.4375,11.59,5.06,12.8,-8.1875,-32.5625,-6.75,-31.3125,37.1875,212.562,-0.25708,-0.380188,-0.124207,-0.8797
-105.562,376.312,84.125,11.89,4.02,12.55,-5.1875,-31.875,-12.0625,-28.4375,34.4375,211.25,-0.250183,-0.350647,-0.121765,-0.894226
-105.562,376.312,84.125,11.28,1.83,16.65,-5.1875,-31.875,-12.0625,-25.875,31.5625,209.938,-0.24292,-0.320679,-0.119202,-0.907715
-58.25,377.938,89.9375,11.44,1.01,19.97,-5.1875,-31.875,-12.0625,-23.9375,28.625,208.5,-0.233643,-0.291199,-0.119995,-0.919861
-29.125,382.625,92.625,12.55,-0.03,23.38,-5.1875,-31.875,-12.0625,-22.5,25.5625,206.938,-0.223206,-0.261719,-0.122925,-0.930908
-26,394.562,93.375,13.85,-0.44,25.58,-5.1875,-31.875,-12.0625,-21.25,22.375,205.375,-0.212219,-0.231018,-0.12616,-0.941101
-83.8125,399.938,95.875,16.5,-1.29,24.68,-2.5625,-29.25,-16.5625,-19.625,19.0625,203.938,-0.201782,-0.198608,-0.124756,-0.950928
-83.8125,399.938,95.875,17.82,-1.62,23.19,-2.5625,-29.25,-16.5625,-18.125,15.75,202.5,-0.191162,-0.166016,-0.123108,-0.959534
-111.625,396.375,102.188,18.8,-2,21.58,-2.5625,-29.25,-16.5625,-16.5,12.375,201.062,-0.180237,-0.133057,-0.118958,-0.967285
-123.875,388.75,149.875,19.74,-2.54,20.26,-2.5625,-29.25,-16.5625,-14.875,9.125,199.25,-0.165344,-0.10083,-0.112976,-0.974548
-117.688,379.688,191.562,18.27,-2.99,19.23,-2.5625,-29.25,-16.5625,-13.375,6,197,-0.146851,-0.0697021,-0.106934,-0.980896
-108.562,379.062,233.5,16.21,-3.09,18.92,1.375,-28.25,-18.5625,-12.0625,2.9375,194.375,-0.124634,-0.0390015,-0.101135,-0.986267
-99.1875,383.5,268.875,14.1,-3.27,19.43,1.375,-28.25,-18.5625,-11,-0.125,191.438,-0.0991821,-0.00830078,-0.0959473,-0.990417
-95,379.562,290.625,11.19,-3.57,19.76,1.375,-28.25,-18.5625,-10.1875,-3.1875,188.25,-0.0718384,0.0218506,-0.0909424,-0.993042
-93.3125,367.188,290.125,5.69,-4.85,19.93,1.375,-28.25,-18.5625,-9.5625,-6.25,185.062,-0.0444336,0.0509644,-0.0858154,-0.994019
-94.9375,350.312,268.438,4.45,-5.34,20.7,1.375,-28.25,-18.5625,-9.0625,-9.125,182.125,-0.0189819,0.0787354,-0.0802002,-0.993469
-102.875,334.25,238.875,4.13,-5.58,21.57,4,-27.25,-18.6875,-8.625,-12,179.5,0.00402832,0.105225,-0.0736694,-0.991699
-116,325.062,216.938,7.3,-5.91,21.74,4,-27.25,-18.6875,-8.0625,-14.8125,177.062,0.0252686,0.130981,-0.0657349,-0.988892
-132.062,328.5,217.812,9.56,-5.82,20.78,4,-27.25,-18.6875,-7.5625,-17.625,174.562,0.0466919,0.15686,-0.0563354,-0.984924
-149.125,342.625,245.5,11.13,-5.29,19.39,4,-27.25,-18.6875,-7.0625,-20.625,171.688,0.0706787,0.183472,-0.0458374,-0.979431
-165.062,365.312,293.25,12.31,-4.38,17.87,4,-27.25,-18.6875,-6.8125,-23.8125,168.375,0.0988159,0.211365,-0.0344849,-0.971802
-179.688,394.375,353.5,13.02,-1.99,15.35,4,-26.875,-20.0625,-6.875,-27.1875,164.312,0.13208,0.240967,-0.0227661,-0.961243
-193.25,420.812,417.125,12.4,-0.86,13.76,4,-26.875,-20.0625,-7.5625,-30.6875,159.562,0.17041,0.27179,-0.0108032,-0.947083
-203.25,442.688,474.312,11.7,0.22,12.5,4,-26.875,-20.0625,-8.875,-34.3125,154.125,0.213074,0.303345,0.000915527,-0.928772
-208.5,464.688,517.188,10.57,1.6,11.42,4,-26.875,-20.0625,-11,-37.875,148.125,0.258484,0.335449,0.0123291,-0.905823
-203.062,470.625,541.5,7.37,2.99,7.26,4,-26.875,-20.0625,-14.0625,-41.1875,141.75,0.304565,0.366882,0.0227661,-0.878723
-183.375,457.938,550.812,5.21,2.65,4.49,2.875,-25.0625,-21.375,-18.125,-43.9375,135.188,0.349609,0.396423,0.0310669,-0.848328
-149.562,434.875,548.812,4.44,2.41,3.26,2.875,-25.0625,-21.375,-23.1875,-46,128.625,0.39209,0.423828,0.0361328,-0.815674
-112.5,431.625,540.25,4.3,2.54,3.37,2.875,-25.0625,-21.375,-29,-47.4375,122.125,0.431213,0.450745,0.0388184,-0.78064
-88.875,443.75,534.562,6.57,2.48,5.56,2.875,-25.0625,-21.375,-35.5625,-48.3125,115.562,0.46759,0.477661,0.0404053,-0.742676
-86.75,452.688,542.812,7.97,1.9,6.1,2.875,-25.0625,-21.375,-42.4375,-48.4375,108.688,0.502686,0.50354,0.041748,-0.701416
-102.812,437.5,565.125,8.46,1.54,6.85,1.5,-22.6875,-24.375,-49.0625,-47.4375,101.375,0.538025,0.526123,0.0422974,-0.657227
-127.938,400.688,584.312,4.79,2.31,6.47,1.5,-22.6875,-24.375,-54.6875,-45.375,93.625,0.573669,0.54364,0.0415649,-0.611267
-149.125,357.188,583.688,2.43,2.65,5.7,1.5,-22.6875,-24.375,-59,-42.5625,85.75,0.608337,0.555969,0.0396729,-0.565063
-159.188,318.375,558.875,-0.04,2.94,4.7,1.5,-22.6875,-24.375,-62.125,-39.375,78.125,0.640381,0.563965,0.0373535,-0.520081
-155.438,283,512.688,-1.66,2.46,3.46,1.5,-22.6875,-24.375,-64.25,-36.125,71.0625,0.668579,0.568848,0.0350342,-0.477722
-141.562,258.688,463.688,0.58,0.57,4.11,1.1875,-20.875,-26,-65.75,-33.125,64.625,0.692566,0.572021,0.03302,-0.438232
-132.125,241.062,432.875,2.35,0.08,5.7,1.1875,-20.875,-26,-66.8125,-30.25,58.5625,0.713623,0.573914,0.0310669,-0.400513
-135.5,224.375,425.562,3.94,0.05,7.66,1.1875,-20.875,-26,-67.5,-27.3125,52.6875,0.733337,0.573914,0.0285645,-0.363281
-152.25,208.125,435.938,4.76,0.38,8.85,1.1875,-20.875,-26,-67.6875,-24.125,46.75,0.75293,0.571411,0.0249634,-0.3255
-171.5,186,452.75,3.9,1.34,7.59,1.1875,-20.875,-26,-67.4375,-20.8125,40.75,0.772522,0.56604,0.0196533,-0.287109
-183.688,160.812,467.312,2.86,1.69,6.53,-1.25,-17.875,-28.875,-66.75,-17.25,34.8125,0.791565,0.558167,0.012207,-0.248413
-184.875,126.375,473.75,1.66,1.9,5.49,-1.25,-17.875,-28.875,-65.75,-13.5,29.125,0.809326,0.548401,0.00219727,-0.210327
-175.375,82.8125,468.875,1.24,1.8,5.39,-1.25,-17.875,-28.875,-64.625,-9.75,23.8125,0.825012,0.537476,-0.0107422,-0.174255
-162.188,19.1875,455.625,0.69,2.79,8.03,-1.25,-17.875,-28.875,-63.3125,-5.875,19.125,0.838379,0.525635,-0.0276489,-0.141663
-141.438,-68.5625,430.875,-0.04,3.26,7.6,-1.25,-17.875,-28.875,-62.0625,-1.875,15.3125,0.848999,0.513367,-0.0499268,-0.114441
-103.75,-173.688,389.562,-0.03,3.87,8.16,-2.6875,-14.1875,-30.875,-61.0625,2.1875,12.5625,0.855957,0.502258,-0.078186,-0.0944214
-59.0625,-280.438,340.125,2.7,5.09,15.36,-2.6875,-14.1875,-30.875,-60.5625,6.375,10.875,0.858704,0.493164,-0.112366,-0.0820312
-22.5,-367.375,296.688,5.29,5.51,19.15,-2.6875,-14.1875,-30.875,-60.5625,10.625,10.125,0.857544,0.485779,-0.151123,-0.0759888
-3.625,-402.125,266.812,7.07,6.54,22.39,-2.6875,-14.1875,-30.875,-61,14.8125,9.75,0.853577,0.479126,-0.190979,-0.0731812
-1.75,-387.125,248.312,8.1,7.29,23.1,-2.6875,-14.1875,-30.875,-61.625,18.6875,9.5,0.848267,0.47229,-0.22876,-0.0708618
-3.6875,-349.375,235.188,6.07,8.06,20.5,-7.5,-9.375,-33.375,-62.3125,22.3125,9.1875,0.84259,0.465088,-0.263,-0.0679932
-12.5625,-310.25,216.688,4.25,8.51,20.07,-7.5,-9.375,-33.375,-62.9375,25.5625,8.875,0.836975,0.457336,-0.293396,-0.0650024
-27.6875,-258.562,182.562,3.52,7.94,18.47,-7.5,-9.375,-33.375,-63.4375,28.25,8.5625,0.832336,0.44928,-0.31842,-0.0627441
-41.75,-209.312,139.25,3.76,7.35,17.11,-7.5,-9.375,-33.375,-63.6875,30.375,8.5,0.828857,0.441345,-0.338135,-0.0620117
-61.75,-175.062,95.3125,7.13,6.69,14.83,-7.5,-9.375,-33.375,-63.8125,31.9375,8.75,0.826538,0.43335,-0.353577,-0.0636597
-93.3125,-151.562,60.5,9.6,6.54,13.87,-19.375,-7.1875,-28.375,-63.5625,33.125,9.375,0.825623,0.424072,-0.365906,-0.0678711
-134.25,-132.812,41.125,11.4,6.59,12.64,-19.375,-7.1875,-28.375,-62.875,34.0625,10.1875,0.826477,0.412598,-0.375854,-0.0739136
-182.688,-125.938,35.0625,11.87,6.94,11.75,-19.375,-7.1875,-28.375,-61.75,34.875,11.25,0.828918,0.397888,-0.384644,-0.081665
-245.688,-131.688,33.5625,10.15,9.54,13.45,-19.375,-7.1875,-28.375,-60.0625,35.8125,12.5,0.832886,0.378601,-0.393188,-0.0916748
-325.188,-143.188,26.75,8.78,11.05,13.56,-19.375,-7.1875,-28.375,-57.6875,36.75,14.25,0.838318,0.353577,-0.401428,-0.105103
-405.938,-160.25,12.8125,7.59,12.82,12.91,-23.25,-3.75,-25.0625,-54.6875,37.6875,16.5,0.844543,0.322754,-0.409241,-0.122681
-473.688,-186.375,-2.625,7.47,16.47,12.05,-23.25,-3.75,-25.0625,-51.25,38.75,19.25,0.85022,0.286804,-0.417175,-0.144165
-526.812,-219.062,-10.1875,7.96,17.97,11.43,-23.25,-3.75,-25.0625,-47.5625,40.0625,22.3125,0.854126,0.246399,-0.425781,-0.168579
-562.375,-258.812,-6.6875,7.68,19.18,10.76,-23.25,-3.75,-25.0625,-43.6875,41.8125,25.5625,0.855286,0.202087,-0.43573,-0.194458
-578.312,-303.438,1.6875,6.63,20.15,10.36,-23.25,-3.75,-25.0625,-39.9375,44,28.9375,0.852722,0.155029,-0.447449,-0.220459
-578.688,-344.938,9.6875,5.32,20.47,10.27,-24.75,2.5625,-21.375,-36.3125,46.6875,32.375,0.846069,0.106384,-0.460938,-0.245728
-568,-377.312,20.6875,6.12,19.74,10.3,-24.75,2.5625,-21.375,-32.9375,49.75,35.6875,0.83551,0.0570679,-0.475525,-0.269287
-551.188,-393.25,44.3125,7.65,18.77,10.71,-24.75,2.5625,-21.375,-29.6875,53.25,38.8125,0.822083,0.00744629,-0.490112,-0.289734
-535.188,-392,86.625,9.08,17.87,11.61,-24.75,2.5625,-21.375,-25.9375,57,41.4375,0.807007,-0.0428467,-0.503479,-0.305664
-524.375,-372,143.188,10.53,16.37,13.77,-24.75,2.5625,-21.375,-21.1875,60.8125,43.5,0.791748,-0.0941162,-0.513977,-0.316345
-521.625,-330.5,207.75,11.41,16.29,15.15,-29,10.5,-11.5,-14.3125,64.5,44.9375,0.777649,-0.146667,-0.519714,-0.32196
-531.188,-273.562,278.312,11.75,16.52,15.95,-29,10.5,-11.5,-4.1875,67.5625,45.75,0.765442,-0.200867,-0.518982,-0.32312
-542.812,-204.25,345.312,12.03,16.62,15.97,-29,10.5,-11.5,9.75,69.375,45.9375,0.755432,-0.256287,-0.510681,-0.320618
-542.5,-131,396.438,11.18,16.62,12.98,-29,10.5,-11.5,25.75,69.375,45.6875,0.747559,-0.311035,-0.494934,-0.315369
-529.875,-66.25,422.25,10.63,16.83,12.47,-29,10.5,-11.5,40.5,67.6875,45.1875,0.740906,-0.363281,-0.473145,-0.308594
-517.188,-18,420.688,10.61,16.85,12.36,-27.375,16.75,4.0625,52.1875,64.875,44.6875,0.73407,-0.412292,-0.447205,-0.30188
-511.062,15.8125,398.375,11.98,14.81,13.12,-27.375,16.75,4.0625,61.0625,61.5625,44.4375,0.725952,-0.457947,-0.41864,-0.296631
-514.75,35.25,368.125,13.22,12.83,14.59,-27.375,16.75,4.0625,68.125,58.1875,44.5625,0.715515,-0.500916,-0.388794,-0.293152
-535.812,44.25,343.938,14.25,11.2,16.7,-27.375,16.75,4.0625,74.3125,54.9375,45.0625,0.701782,-0.542725,-0.357788,-0.291443
-579.25,43.25,333.938,15.17,9.66,18.74,-27.375,16.75,4.0625,80.3125,51.6875,46.0625,0.683655,-0.585144,-0.325134,-0.290649
-642.875,26.75,338.812,13.81,10.13,19.51,-21.1875,20.1875,15.5625,86.6875,48.375,47.375,0.659668,-0.629761,-0.290527,-0.289551
-708.25,-11.1875,340.625,10.88,11.88,16.11,-21.1875,20.1875,15.5625,93.625,45.0625,49,0.628723,-0.676331,-0.255127,-0.286682
-745.5,-66.3125,312.938,8.49,12.52,13,-21.1875,20.1875,15.5625,101.062,42,50.9375,0.590881,-0.722595,-0.222229,-0.281677
-751.938,-125.312,254.562,6.3,11.83,9.78,-21.1875,20.1875,15.5625,108.812,39.3125,53.3125,0.547424,-0.766113,-0.19458,-0.274841
-738.375,-182.562,182,5.68,7.3,3.9,-21.1875,20.1875,15.5625,116.688,37,56.0625,0.499756,-0.805725,-0.173706,-0.266174
-710.312,-215.062,112.688,6.21,5.41,1.75,-15.25,17.1875,23.375,124.438,35,59.375,0.44989,-0.840515,-0.158875,-0.256653
-675.625,-221.375,54.8125,6.9,4.44,1.17,-15.25,17.1875,23.375,131.875,33.3125,63.5625,0.399414,-0.870178,-0.148438,-0.247498
-647.5,-218.125,19.625,8.16,4.26,1.52,-15.25,17.1875,23.375,139,31.625,68.6875,0.348938,-0.895325,-0.140625,-0.238525
-634.188,-220.125,16.625,11.11,4.82,0.6,-15.25,17.1875,23.375,145.875,29.875,163.5,0.298218,-0.917175,-0.132812,-0.228516
-626,-226.875,44.75,12.69,4.98,-0.29,-15.25,17.1875,23.375,152.312,27.75,165,0.24762,-0.93634,-0.122803,-0.216492
-607,-217.812,94.5625,13.75,4.71,-2.54,-11.1875,1.5625,31.5,158.188,25.4375,166.938,0.198792,-0.952576,-0.108643,-0.203308
-567.625,-194.562,152.312,10.89,4.52,-7.48,-11.1875,1.5625,31.5,163.375,23.1875,169.375,0.153748,-0.965515,-0.0897827,-0.190002
-511.812,-165.188,197.938,8.93,5.26,-7.83,-11.1875,1.5625,31.5,167.688,21.1875,172.062,0.113831,-0.975159,-0.0674438,-0.177673
-459.812,-135.938,225.688,7.99,5.86,-7.61,-11.1875,1.5625,31.5,171.438,19.5,174.938,0.0784912,-0.981934,-0.0432129,-0.166748
-419.188,-101.312,239.5,7.09,6.03,-7.86,-11.1875,1.5625,31.5,174.75,18.25,177.875,0.0466919,-0.986145,-0.0181274,-0.158142
-382.438,-53.25,243.312,5.57,5.64,-6.11,-5.1875,-14.375,31.0625,177.688,17.5625,180.812,0.0179443,-0.987976,0.00701904,-0.153198
-346.062,11.25,242.438,4.27,5.71,-6.09,-5.1875,-14.375,31.0625,-179.625,17.625,183.625,-0.0078125,-0.98761,0.0317383,-0.153503
-320.062,52.8125,243.75,3.93,6.53,-6.29,-5.1875,-14.375,31.0625,-177.312,18.25,186.5,-0.0314331,-0.985474,0.0561523,-0.157104
-306.062,87.9375,249.938,3.29,7.94,-6.65,-5.1875,-14.375,31.0625,-175.125,19.25,189.375,-0.0540161,-0.98175,0.0807495,-0.163513
-296.625,118.938,251.125,3.13,9.09,-9.89,-5.1875,-14.375,31.0625,-173.125,20.625,192.25,-0.0758667,-0.97644,0.105103,-0.172424
-278.75,149.875,247.188,5.15,8.64,-10.91,-7.0625,-22.1875,24.875,-171.25,22.375,195.062,-0.0965576,-0.969727,0.128479,-0.183777
-246.938,189.188,252.312,7.85,8.09,-12.08,-7.0625,-22.1875,24.875,-169.812,24.5625,197.875,-0.114868,-0.961487,0.151367,-0.198547
-201.812,227.812,280.812,10.75,7.74,-14.07,-7.0625,-22.1875,24.875,-168.938,27.25,200.812,-0.129395,-0.951538,0.175232,-0.217041
-144.562,255.812,337,16.95,7.32,-16.22,-7.0625,-22.1875,24.875,-169.062,30.3125,204.25,-0.138489,-0.939636,0.202026,-0.239014
-82.125,262.312,417.062,19.61,7.1,-14.51,-7.0625,-22.1875,24.875,-170.438,33.5,208.312,-0.140991,-0.925415,0.233521,-0.263062
-34,220.625,513.312,20.26,7.78,-12.72,-13.375,-25.75,17,-173.312,36.3125,213.25,-0.136414,-0.908997,0.271484,-0.285461
-3.6875,142.375,604.562,18.27,11.57,-12.16,-13.375,-25.75,17,-177.688,38.1875,219.062,-0.125244,-0.890381,0.315918,-0.302856
22,77.375,677.562,18.72,13.96,-11.72,-13.375,-25.75,17,176.812,38.875,225.5,-0.108093,-0.869141,0.364868,-0.315857
45.1875,39.3125,753.125,21.23,17.12,-10.27,-13.375,-25.75,17,170.562,38.4375,232.688,-0.0857544,-0.843567,0.417725,-0.326355
60.6875,22,858.875,23.36,21.06,-9.47,-13.375,-25.75,17,163.688,36.8125,240.75,-0.0583496,-0.810974,0.47583,-0.335449
68.8125,4.125,992.812,22.92,30.86,-8.19,-23.75,-19.5625,11.1875,156.625,33.5625,250.125,-0.0255737,-0.768555,0.539978,-0.342163
77.8125,-13.4375,1128.94,20.57,35.88,-7.09,-23.75,-19.5625,11.1875,150,28.5625,260.812,0.0126343,-0.714355,0.608276,-0.345703
88.1875,-29.5,1242.88,17.31,39.28,-5.58,-23.75,-19.5625,11.1875,144.438,21.8125,272.5,0.055481,-0.647705,0.676941,-0.345215
96.8125,-49.75,1319.06,14.16,39.28,-3.64,-23.75,-19.5625,11.1875,140.375,13.6875,284.875,0.10144,-0.569763,0.741394,-0.339722
102.688,-76.5,1352.19,5.57,39.28,1.37,-23.75,-19.5625,11.1875,137.875,4.5625,297.562,0.148987,-0.483215,0.797668,-0.328735
109,-121.75,1331.25,1.56,39.2,2.04,-29,2.6875,10.375,136.812,-4.9375,309.938,0.197388,-0.393005,0.842041,-0.312378
121.688,-173.625,1259.25,-1.76,36.41,2.97,-29,2.6875,10.375,137,-14.5,321.5,0.245544,-0.30426,0.872681,-0.292542
129.188,-227.125,1155.69,-3.01,32.63,6.02,-29,2.6875,10.375,138.062,-23.625,85.5625,0.292725,-0.220886,0.890015,-0.270935
113.625,-276,1048.56,-1.86,26.57,10.69,-29,2.6875,10.375,140.125,-32.25,72.3125,0.338135,-0.144958,0.896362,-0.247375
83.1875,-313.875,956.062,-1.18,24.29,9.96,-29,2.6875,10.375,143.312,-40.375,60.3125,0.381531,-0.0764771,0.894104,-0.22168
62.0625,-355.875,883.25,-0.71,21.85,9.08,-8.25,30.5,10,147.625,-48.0625,49.375,0.42395,-0.0144043,0.884338,-0.195007
59.25,-399.625,826.125,1.3,19.46,14.09,-8.25,30.5,10,153.5,-55.375,39.8125,0.466064,0.0427246,0.867432,-0.168823
58.875,-426.438,789.062,3.19,20.07,16.61,-8.25,30.5,10,162,-62.0625,31.5,0.506897,0.0964966,0.844543,-0.14325
51.0625,-433.5,777.375,5.42,21.01,17.2,-8.25,30.5,10,175.625,-67.6875,24.125,0.545288,0.148499,0.816711,-0.11676
43.625,-426.375,793.938,6.99,22.21,16.97,-8.25,30.5,10,-163.125,-71,17.25,0.580322,0.200439,0.784363,-0.0883179
39.4375,-420.125,830.938,8.21,26.49,18.13,16,29.375,6.25,-137.438,-70.5625,10.625,0.611755,0.25354,0.747131,-0.0571289
40.0625,-419.125,873.062,6.86,28.67,18.11,16,29.375,6.25,-116.625,-66.1875,4.1875,0.639465,0.307678,0.704224,-0.0234375
49.25,-437.5,900.812,4.9,31.01,18.41,16,29.375,6.25,-103.5,-59.4375,358.062,0.663574,0.361755,0.654724,0.0108643
65.5,-479.312,898.188,1.54,33.19,18.61,16,29.375,6.25,-95.375,-51.5625,352.812,0.684753,0.414001,0.598267,0.0427856
88.1875,-531.25,853,-5.39,33.75,18.41,16,29.375,6.25,-90.1875,-43.625,348.812,0.702881,0.462402,0.536072,0.0688477
118.75,-577.625,763.438,-7.15,31.8,17.93,29.5,10.6875,-2.5625,-86.8125,-36.0625,346.312,0.71759,0.505737,0.471069,0.0859375
153,-620.688,644.875,-5.31,28.78,20.04,29.5,10.6875,-2.5625,-84.75,-29.4375,345.562,0.728943,0.543579,0.405823,0.0921631
177.688,-649.062,527.812,-1.86,26.71,22.47,29.5,10.6875,-2.5625,-83.5625,-23.6875,346.25,0.737,0.576172,0.342163,0.088501
187.938,-682.625,432.438,9.29,23.93,22.06,29.5,10.6875,-2.5625,-83,-18.75,348.188,0.742493,0.604004,0.279297,0.0765991
198.938,-734.5,373,16.21,23.15,22.46,29.5,10.6875,-2.5625,-83,-14.3125,351.125,0.745361,0.628418,0.214966,0.0576782
211.625,-788.438,356.938,20.87,23.62,24.48,23.1875,-11.875,-16.5625,-83.5,-10,354.688,0.744629,0.650208,0.146973,0.0343628
207.438,-821.25,369.5,16.99,24.2,27.52,23.1875,-11.875,-16.5625,-84.4375,-5.625,358.438,0.740051,0.668213,0.0754395,0.0098877
188.625,-824.312,382.938,11.13,22,23.99,23.1875,-11.875,-16.5625,-85.8125,-1.25,2.125,0.732117,0.68103,0.00244141,-0.013855
179.625,-807.375,370.812,4.76,19.7,21.23,23.1875,-11.875,-16.5625,-87.625,2.6875,5.875,0.720276,0.68927,-0.0688477,-0.0372925
183.312,-761.812,324.5,-0.4,17.78,19.53,23.1875,-11.875,-16.5625,-90,6,9.8125,0.704407,0.694336,-0.134338,-0.0606689
186.188,-694.188,262.688,-6.24,11.82,18.82,4,-21.5,-24.375,-92.625,8.375,13.875,0.685486,0.697449,-0.191589,-0.0834961
175,-607,208.938,-8.09,8.82,21.06,4,-21.5,-24.375,-95.3125,10,17.75,0.665771,0.698792,-0.239868,-0.104126
137.188,-508.5,169.688,-8.8,5.86,22.43,4,-21.5,-24.375,-97.5625,11.0625,21.25,0.648193,0.697815,-0.279419,-0.121704
74.6875,-422.312,144.938,-7.46,3.72,25.03,4,-21.5,-24.375,-99.1875,11.875,24.3125,0.634827,0.693665,-0.311646,-0.13678
-23.375,-360,135.25,-3.95,5.94,32.83,4,-21.5,-24.375,-99.75,12.5625,27.0625,0.627991,0.684326,-0.338379,-0.151184
-166,-324.875,132.75,-2.21,9.64,33.5,-13.25,-25.5625,-16.1875,-98.875,13.3125,29.75,0.629639,0.667236,-0.360962,-0.167542
-326.062,-315.688,128.688,-2.01,12.95,30.63,-13.25,-25.5625,-16.1875,-96.5,14.125,32.75,0.639709,0.640991,-0.380127,-0.188293
-462,-331.562,114.125,1.08,17.45,27.59,-13.25,-25.5625,-16.1875,-92.9375,15,36.25,0.65509,0.606323,-0.396362,-0.214661
-553.938,-371,109.75,8.29,20.65,19.56,-13.25,-25.5625,-16.1875,-88.5625,16,40.125,0.671936,0.564392,-0.411804,-0.245728
-600.938,-411.125,131.438,10.91,21.8,17.98,-13.25,-25.5625,-16.1875,-83.9375,17.5,44,0.687683,0.516174,-0.428101,-0.278259
-613.312,-438.188,174.438,13.08,22.61,16.41,-20.375,-22.5625,-14.1875,-79.3125,19.8125,47.5,0.701172,0.462952,-0.445801,-0.308716
-594.125,-465.5,232.375,13.82,22.59,15.27,-20.375,-22.5625,-14.1875,-75.125,23,50.375,0.711365,0.405945,-0.465942,-0.334778
-547.062,-489.688,287.75,11.88,21.85,16.62,-20.375,-22.5625,-14.1875,-71.5625,27,52.625,0.717407,0.347107,-0.488647,-0.355042
-492.438,-512.812,323.25,9.72,20.55,18.98,-20.375,-22.5625,-14.1875,-68.8125,31.625,54.4375,0.718811,0.287964,-0.513367,-0.369995
-449.062,-530.25,338.5,7.5,19.01,21.84,-20.375,-22.5625,-14.1875,-66.875,36.5625,56,0.715759,0.228943,-0.538574,-0.381042
-426.562,-533.5,339.75,6.82,15.67,26.94,-27.75,-11.875,-14.5,-65.5,41.6875,57.5,0.709229,0.170166,-0.5625,-0.389404
-427.438,-509.438,341.375,7.6,14.61,28.41,-27.75,-11.875,-14.5,-64.375,46.75,58.875,0.700989,0.111389,-0.582703,-0.395813
-447.938,-465.688,354.75,8.8,13.95,29.01,-27.75,-11.875,-14.5,-62.9375,51.8125,60,0.69281,0.0516968,-0.597534,-0.400452
-483.375,-419.938,383.188,9.62,14.7,29.29,-27.75,-11.875,-14.5,-60.8125,57,60.9375,0.685303,-0.0100708,-0.606201,-0.403442
-526.75,-381.438,420.125,10.26,18.9,27.17,-27.75,-11.875,-14.5,-57.625,62.375,61.625,0.678223,-0.0749512,-0.608704,-0.404907
-565.438,-348.125,455.188,9.71,20.01,24.62,-31.75,-0.375,-1,-52.6875,67.9375,62.1875,0.670715,-0.142334,-0.60498,-0.404785
-586.438,-317.938,479.062,9.16,19.72,21.57,-31.75,-0.375,-1,-44.9375,73.4375,62.5625,0.662231,-0.210388,-0.595764,-0.402771
-581.688,-286.625,483.25,7.73,18.36,18.18,-31.75,-0.375,-1,-31.4375,78.5,62.875,0.652405,-0.276367,-0.582092,-0.398987
-555.188,-259.812,463.75,6.8,14.31,14.59,-31.75,-0.375,-1,-5.4375,82.375,63.125,0.64093,-0.337769,-0.565674,-0.39386
-525.438,-237.25,428.125,7.01,12.43,14.1,-31.75,-0.375,-1,3.9375,83.5,63.4375,0.627686,-0.39386,-0.547791,-0.388306
-509.438,-222.25,388.438,8.49,11,14.01,-27,9,9.5625,72.75,81.5625,64.0625,0.612183,-0.445374,-0.529114,-0.38324
-514.812,-224.625,362,11.94,9.77,12.89,-27,9,9.5625,92.5,78.3125,65,0.593567,-0.49469,-0.509644,-0.378479
-535.938,-241.5,358.438,14.08,9.53,11.4,-27,9,9.5625,105.062,74.5625,66.25,0.571289,-0.543762,-0.48877,-0.372864
-560.688,-259.938,377.375,15.31,9.55,9.74,-27,9,9.5625,114.062,70.25,67.5625,0.545654,-0.593506,-0.465454,-0.365173
-579.25,-274.812,409.125,14.05,10.13,8.34,-27,9,9.5625,121,65.5,68.8125,0.517334,-0.643433,-0.438843,-0.354614
-588.188,-281.375,438.5,11,9.34,5.2,-20.75,11.1875,23.5,126.5,60.5,70,0.487,-0.692322,-0.408813,-0.341187
-586.75,-282.938,453.188,8.41,8.45,2.96,-20.75,11.1875,23.5,131.188,55.375,71.125,0.454956,-0.738586,-0.37616,-0.325562
-574.562,-299.812,446.25,6.48,7.48,1.37,-20.75,11.1875,23.5,135.625,50.25,72.25,0.420959,-0.781372,-0.343323,-0.307251
-552.188,-318.375,416.688,4.56,6.4,-0.14,-20.75,11.1875,23.5,139.938,45.25,73.3125,0.385315,-0.819641,-0.312134,-0.286865
-521.875,-325.875,365.938,2.07,3.85,-3.49,-20.75,11.1875,23.5,144.188,40.625,74.5625,0.348816,-0.8526,-0.284241,-0.265625
-483.062,-325.125,301.938,2.2,2.03,-5.49,-12.25,4.875,29.5,148.312,36.375,76.0625,0.3125,-0.880066,-0.260864,-0.244568
-435.5,-329.375,239.938,3.25,0.2,-7.17,-12.25,4.875,29.5,152.25,32.4375,149.875,0.277466,-0.902466,-0.242432,-0.223022
-381.438,-337.812,192.5,4.5,-1.32,-8.12,-12.25,4.875,29.5,155.75,28.6875,152.125,0.244873,-0.920776,-0.22821,-0.200378
-326.25,-345.188,162.875,6.46,-3.8,-9.49,-12.25,4.875,29.5,158.812,25,153.875,0.215393,-0.935669,-0.21698,-0.176331
-274.812,-350.25,149.062,7.24,-4.27,-9.28,-12.25,4.875,29.5,161.438,21.3125,155.312,0.189331,-0.947876,-0.207336,-0.150818
-274.812,-330.812,145.062,7.93,-4.46,-8.92,-4.5,-6.5625,33.5625,163.562,17.875,156.625,0.166626,-0.957703,-0.197876,-0.126038
-233.125,-267,148.375,7.63,-4.66,-11.4,-4.5,-6.5625,33.5625,165.25,15,158,0.147644,-0.965332,-0.187439,-0.105591
-160.125,-175.5,158.25,9.06,-4.72,-13.11,-4.5,-6.5625,33.5625,166.5,13,159.5,0.133179,-0.97113,-0.175232,-0.0917969
-117.875,-117.375,182.688,10.41,-4.48,-13.39,-4.5,-6.5625,33.5625,167.375,11.4375,161.25,0.123169,-0.975891,-0.160645,-0.0818481
-77.0625,-67.75,222.25,10.59,-4.55,-13.9,-4.5,-6.5625,33.5625,167.688,10.375,163.438,0.117371,-0.97998,-0.142456,-0.0750122
-41.75,-14.6875,261.062,7.29,-4.32,-13.19,3.5625,-13.6875,31.0625,167.688,9.6875,166,0.115417,-0.983337,-0.120667,-0.0716553
-23.5625,24.0625,283.938,4.81,-4.06,-12.08,3.5625,-13.6875,31.0625,167.438,9.3125,168.75,0.115356,-0.986023,-0.0966797,-0.071106
-30.375,51.4375,280.438,2.88,-4.05,-10.72,3.5625,-13.6875,31.0625,167.312,9.25,171.562,0.114868,-0.988037,-0.0726318,-0.072876
-58.625,86.3125,243.75,0.91,-3.91,-10.08,3.5625,-13.6875,31.0625,167.438,9.5,174.062,0.112,-0.989319,-0.0510864,-0.078064
-90.25,130.688,181.625,1.11,-3.64,-13.03,3.5625,-13.6875,31.0625,168,10.375,176,0.106201,-0.989868,-0.0340576,-0.0876465
-105.312,154.438,119.25,3.83,-2.76,-13.6,0.5625,-15.75,31.0625,168.75,11.625,177.438,0.0986938,-0.989868,-0.0219116,-0.0997925
-103.438,145.188,81.25,6.65,-1.14,-14.03,0.5625,-15.75,31.0625,169.5,12.875,178.438,0.0910034,-0.989502,-0.0130615,-0.11145
-96.125,110.375,80.3125,8.15,-1.1,-15.16,0.5625,-15.75,31.0625,170.188,13.75,179.438,0.0838013,-0.989197,-0.00457764,-0.120117
-83.4375,110.5,94.5625,10.02,-0.75,-16.6,0.5625,-15.75,31.0625,170.75,14.6875,180.562,0.0778198,-0.988586,0.00494385,-0.128723
-64.6875,165.625,105.688,10.77,0.77,-16.48,0.5625,-15.75,31.0625,171,16.0625,181.75,0.0734863,-0.987061,0.015564,-0.141785
-49.625,217.375,119.062,11.3,2.34,-16.14,-3.875,-17.6875,30.1875,171.062,18,183.188,0.0704956,-0.984375,0.0274658,-0.159058
-39.5,243,133.312,11.04,4.56,-15.57,-3.875,-17.6875,30.1875,170.875,20.125,184.688,0.0684204,-0.980774,0.0404663,-0.178345
-30.0625,237.312,146.125,10.31,5.2,-15.42,-3.875,-17.6875,30.1875,170.438,22.125,186.375,0.0673218,-0.976562,0.0543823,-0.197021
-15.5625,212.938,156.375,9.47,5.63,-15.1,-3.875,-17.6875,30.1875,169.812,23.9375,188.062,0.067627,-0.972168,0.0687866,-0.213562
4.5,187.062,164.438,9.49,6.51,-14.79,-3.875,-17.6875,30.1875,168.938,25.4375,189.812,0.0698853,-0.96759,0.083252,-0.227966
27.25,177.5,178.312,11.55,7.05,-14.68,-9.5,-18.5,26.5,167.625,26.75,191.625,0.0742798,-0.962524,0.0983276,-0.241577
53.9375,189.25,207.688,13.36,6.42,-16.21,-9.5,-18.5,26.5,165.875,28.0625,193.688,0.0812988,-0.956299,0.115234,-0.256042
92.75,218.688,253.125,14.46,6.62,-16.33,-9.5,-18.5,26.5,163.375,29.4375,196.188,0.0921021,-0.94812,0.135132,-0.272705
140.812,245.812,315.25,15.48,7.95,-14.88,-9.5,-18.5,26.5,159.938,30.75,199.25,0.107727,-0.937134,0.158936,-0.291382
180.25,256.75,387.75,16.35,10.36,-13.7,-9.5,-18.5,26.5,155.5,31.625,202.938,0.127991,-0.923157,0.187378,-0.310303
180.25,242.5,463.375,15.65,11.48,-13.87,-15.375,-16.5625,24.875,150.375,31.6875,207.312,0.152405,-0.906189,0.220398,-0.327148
208.312,220,531.25,14.23,12.48,-14.26,-15.375,-16.5625,24.875,144.75,30.75,124.125,0.180786,-0.885925,0.257019,-0.341064
269,205.812,584.938,12.42,13.47,-14.61,-15.375,-16.5625,24.875,138.875,28.8125,117.75,0.212952,-0.861816,0.295715,-0.352844
306.312,201.125,624.938,9.07,15.22,-15.1,-15.375,-16.5625,24.875,132.938,26,111.25,0.248413,-0.83313,0.335083,-0.36322
348.125,200.312,656.375,8.04,16.26,-14.39,-15.375,-16.5625,24.875,127.062,22.375,104.812,0.286743,-0.799438,0.374023,-0.37262
348.125,200.312,683.875,7.13,17.16,-14.19,-23.5,-5.5,20.875,121.375,18,98.5625,0.327515,-0.760376,0.411743,-0.380798
389.25,198,709.062,5.39,19.53,-11.09,-23.5,-5.5,20.875,115.875,12.875,92.5,0.3703,-0.715942,0.447632,-0.387207
460.875,176.938,730.688,4.47,20.56,-9.42,-23.5,-5.5,20.875,110.625,7.0625,86.75,0.414246,-0.66626,0.480957,-0.391418
486.125,154.125,747.312,3.3,21.31,-7.86,-23.5,-5.5,20.875,105.688,0.625,81.0625,0.458679,-0.612,0.510803,-0.392517
504.312,124.062,756.5,2.01,21.8,-5.9,-23.5,-5.5,20.875,100.938,-6.125,75.5625,0.502991,-0.554077,0.536438,-0.390259
514.75,95.0625,753.812,0.95,21.96,-2.41,-22.875,15.5625,13.0625,96.3125,-13.1875,70.3125,0.545959,-0.493408,0.557068,-0.384827
515.312,70.3125,746.062,1.03,21.71,-1.57,-22.875,15.5625,13.0625,91.6875,-20.3125,65.375,0.58667,-0.43103,0.572998,-0.376465
509.25,51.4375,739.562,1.3,21.52,-0.79,-22.875,15.5625,13.0625,86.9375,-27.4375,60.625,0.624451,-0.367249,0.584595,-0.365295
500.062,39.25,737.438,1.66,21.51,0.18,-22.875,15.5625,13.0625,81.9375,-34.5625,56.125,0.658875,-0.302429,0.592407,-0.351318
489.562,31.4375,739.562,1.67,21.33,0.77,-22.875,15.5625,13.0625,76.375,-41.6875,51.6875,0.689819,-0.236572,0.596863,-0.334534
480.938,28.375,745.125,1.27,21.59,0.74,-8.5,31.875,2,69.875,-48.625,47.375,0.717041,-0.169678,0.598145,-0.315063
473.188,23.6875,752.062,1,21.9,0.75,-8.5,31.875,2,61.75,-55.375,43.125,0.740601,-0.102112,0.596069,-0.292908
463.5,15.6875,754.125,0.68,22.22,1.06,-8.5,31.875,2,50.875,-61.5,38.875,0.760315,-0.034668,0.590454,-0.268494
451.438,0.75,752.5,0.22,22.99,2.17,-8.5,31.875,2,35.625,-66.5625,34.5625,0.77655,0.0317993,0.580872,-0.242004
437.188,-23.125,745.625,0.32,23.28,2.03,-8.5,31.875,2,14.9375,-69.4375,30.3125,0.789612,0.0963135,0.566895,-0.21405
428.688,-49.875,735.875,0.61,23.46,1.44,8.75,30.75,-11.6875,-8.25,-69.375,26.0625,0.799744,0.158813,0.548401,-0.185425
431.188,-75.4375,724.812,1.31,23.94,1.88,8.75,30.75,-11.6875,-28.3125,-66.4375,22,0.806763,0.219788,0.525513,-0.157043
441.25,-100.312,711.312,1.79,24.06,2.62,8.75,30.75,-11.6875,-42.9375,-61.625,18.125,0.810425,0.279419,0.498352,-0.1297
453.688,-122.562,693.25,1.52,23.82,3.35,8.75,30.75,-11.6875,-53.25,-55.875,14.5625,0.810425,0.337463,0.467468,-0.103943
465.625,-139,665.25,1.65,23.3,4.44,8.75,30.75,-11.6875,-60.875,-49.6875,11.375,0.806519,0.393433,0.433838,-0.0805664
465.625,-156.188,631,1.5,22.2,6.67,21.375,15.5625,-19.5,-66.875,-43.5625,8.5625,0.799011,0.446594,0.398132,-0.0599365
472.125,-177.5,587.875,2.1,21.35,8.62,21.375,15.5625,-19.5,-71.75,-37.6875,6.1875,0.788513,0.496216,0.360779,-0.0427246
460.125,-202.375,536.438,3.13,20.63,11.44,21.375,15.5625,-19.5,-75.9375,-32.125,4.3125,0.775818,0.541443,0.322571,-0.0294189
428.938,-233.188,486.375,3.83,19.67,13.57,21.375,15.5625,-19.5,-79.375,-27.0625,2.9375,0.762512,0.581238,0.283447,-0.0198975
378.5,-273.812,440.438,3.21,16.93,14.54,21.375,15.5625,-19.5,-82.125,-22.4375,2.125,0.750122,0.614807,0.243225,-0.0139771
378.5,-273.812,392.188,2.8,15.64,14.5,18.375,-7.0625,-21.875,-84.25,-18.3125,1.875,0.739502,0.641907,0.202209,-0.012085
319.438,-316.062,340.688,2.77,14.28,14.55,18.375,-7.0625,-21.875,-85.875,-14.75,2.25,0.73114,0.662781,0.161194,-0.0144043
196.25,-383.375,293.25,2.82,12.79,14.18,18.375,-7.0625,-21.875,-86.9375,-11.6875,3.1875,0.725037,0.677795,0.120728,-0.0203857
136.875,-399.062,256.938,2.18,10.34,13.49,18.375,-7.0625,-21.875,-87.5625,-9,4.5625,0.721069,0.6875,0.0812378,-0.0288696
81.8125,-397.562,234.25,1.33,9.36,13.34,18.375,-7.0625,-21.875,-87.8125,-6.5625,6.0625,0.719055,0.692566,0.0432129,-0.038269
81.8125,-397.562,234.25,0.07,8.74,13.68,8.875,-20.375,-21.0625,-87.8125,-4.25,7.4375,0.718872,0.693481,0.00695801,-0.046936
30.1875,-379.688,223.562,-2.98,8.26,14.37,8.875,-20.375,-21.0625,-87.375,-2,8.5,0.720703,0.690613,-0.0269165,-0.053833
-72.375,-303.312,218.688,-4.01,8.31,14.55,8.875,-20.375,-21.0625,-86.6875,0.1875,9.1875,0.724915,0.68396,-0.0578003,-0.0583496
-124.938,-259.75,211.812,-4.68,8.62,14.48,8.875,-20.375,-21.0625,-85.5,2.4375,9.5,0.731567,0.673706,-0.0852661,-0.0609131
-178.25,-223.5,197.875,-4.2,9.2,14.36,8.875,-20.375,-21.0625,-83.875,4.5,9.625,0.740784,0.65979,-0.109375,-0.0626831
-178.25,-223.5,197.875,-4.2,11.21,13.7,-1.75,-23.875,-23.5625,-81.8125,6.5,9.75,0.752563,0.642334,-0.13031,-0.0643311
-232.062,-194.312,180.312,-1.28,12.33,13.79,-1.75,-23.875,-23.5625,-79.25,8.375,9.9375,0.766541,0.621094,-0.149048,-0.0666504
-334.125,-180.562,157.062,1.75,13.83,14.12,-1.75,-23.875,-23.5625,-76.25,10.1875,10.1875,0.782227,0.596069,-0.167053,-0.0701294
-379.125,-198,153.25,2.32,15,13.75,-1.75,-23.875,-23.5625,-72.875,12.125,10.75,0.798828,0.567261,-0.185425,-0.0752563
-413.625,-234,148.25,1.52,15.66,12.57,-1.75,-23.875,-23.5625,-69.25,14.25,11.5625,0.815186,0.535095,-0.205505,-0.0828857
-432.062,-288.5,136.875,1.11,15.87,14.15,-9.6875,-18.6875,-27.6875,-65.625,16.5,12.875,0.829834,0.500427,-0.228333,-0.0938721
-444.188,-351.875,122.5,0.87,16.18,16.36,-9.6875,-18.6875,-27.6875,-62.1875,19.0625,14.6875,0.841797,0.463562,-0.254333,-0.108582
-463.25,-411.875,111.375,0.86,16.17,17.91,-9.6875,-18.6875,-27.6875,-58.75,22,16.875,0.850891,0.423889,-0.283325,-0.126587
-486.188,-452.688,109.25,2.13,14.98,19.91,-9.6875,-18.6875,-27.6875,-55.4375,25.25,19.3125,0.857239,0.380859,-0.314087,-0.146362
-505.125,-469.5,121.312,2.35,14.05,20.23,-9.6875,-18.6875,-27.6875,-52.0625,28.875,21.75,0.861023,0.334656,-0.345154,-0.165771
-505.125,-464.062,144.438,2.38,13.08,20.39,-17,-7.875,-28.75,-48.625,32.8125,23.9375,0.86261,0.285889,-0.375061,-0.183105
-516.438,-442.875,171.125,1.61,11.96,21.4,-17,-7.875,-28.75,-44.9375,36.9375,25.75,0.862244,0.235291,-0.40271,-0.197449
-526.375,-413.438,195.188,2.45,11.57,23.03,-17,-7.875,-28.75,-40.9375,41.1875,27.25,0.860413,0.183105,-0.427185,-0.209045
-526.375,-365.75,213.562,2.05,11.36,22.82,-17,-7.875,-28.75,-36.3125,45.1875,28.5,0.857849,0.1297,-0.446838,-0.21814
-536.312,-300.562,223.312,2.93,12,21.95,-17,-7.875,-28.75,-30.8125,48.8125,29.5625,0.855347,0.0756226,-0.460144,-0.225769
-552.688,-300.562,221.688,5.1,10.73,17.99,-25.5,5.375,-21.5,-24.3125,51.8125,30.5,0.852905,0.0217896,-0.466858,-0.232788
-563.875,-231.25,211.75,6.25,10.27,16.64,-25.5,5.375,-21.5,-17.0625,54.125,31.5,0.850037,-0.0305786,-0.468079,-0.239746
-563.625,-129.562,195.688,7.9,10.2,15.94,-25.5,5.375,-21.5,-9.5,55.75,32.5,0.846313,-0.0808105,-0.464966,-0.24707
-557.062,-107.812,183,9.76,9.88,15.36,-25.5,5.375,-21.5,-1.625,56.9375,33.625,0.841064,-0.129639,-0.45929,-0.254639
-553,-99.1875,180,12.4,7.44,13.63,-25.5,5.375,-21.5,6.4375,57.875,34.8125,0.833984,-0.177734,-0.451965,-0.261841
-552.25,-99.1875,186,12.45,5.94,13.09,-26.1875,17.25,-9.1875,14.875,58.4375,35.9375,0.825317,-0.225342,-0.443054,-0.268005
-549.25,-93.625,186,11.91,5.33,13.95,-26.1875,17.25,-9.1875,23.5,58.625,37,0.814941,-0.272156,-0.432983,-0.272705
-542.562,-83.5,193.875,11.65,5.23,14.65,-26.1875,17.25,-9.1875,32.0625,58.5,38,0.802979,-0.317993,-0.421326,-0.276794
-540,-70.25,184.812,12.15,5.01,13.99,-26.1875,17.25,-9.1875,40.375,57.9375,39.25,0.789001,-0.363159,-0.407715,-0.281677
-551.875,-57.25,172.688,13.34,4.76,13.22,-26.1875,17.25,-9.1875,48.375,57.1875,40.8125,0.772583,-0.408081,-0.392151,-0.287781
-572,-57.25,172.688,14.85,4.73,12.41,-23.1875,22.5,3.875,56.25,56.25,42.625,0.753418,-0.453064,-0.375,-0.294128
-592.375,-54.6875,168.312,14.98,5.11,10.11,-23.1875,22.5,3.875,64.25,55.0625,44.4375,0.731201,-0.498657,-0.356628,-0.299072
-612.938,-83.1875,200.062,13.66,4.8,8.67,-23.1875,22.5,3.875,72.375,53.5625,46.25,0.706177,-0.544739,-0.336975,-0.301636
-628.25,-100.688,214.812,12.27,3.76,8.09,-23.1875,22.5,3.875,80.375,51.75,47.9375,0.678589,-0.59021,-0.316467,-0.301697
-632.625,-116.312,218.188,10.59,2.22,7.86,-23.1875,22.5,3.875,88.0625,49.75,49.5625,0.648865,-0.633789,-0.295837,-0.299622
-624.625,-116.312,218.188,10.59,0.92,8.52,-20.375,21.25,15.5625,95.3125,47.6875,51.25,0.617188,-0.674866,-0.275513,-0.296143
-614.062,-126.562,210.938,7.5,1.23,8.26,-20.375,21.25,15.5625,102.375,45.5625,53.0625,0.58313,-0.713806,-0.256042,-0.291443
-610.688,-164.625,178.562,4.37,1.57,6.67,-20.375,21.25,15.5625,109.375,43.5,55.25,0.545715,-0.751038,-0.237732,-0.285706
-619.188,-192.562,150.188,3.8,1.74,4.65,-20.375,21.25,15.5625,116.562,41.4375,57.8125,0.504578,-0.786499,-0.221497,-0.278748
-631.75,-221.438,116.312,5.25,1.79,0.64,-20.375,21.25,15.5625,123.812,39.375,60.875,0.460144,-0.819702,-0.207825,-0.270569
-637,-251.125,87.75,5.77,1.53,-1.34,-14.0625,12.0625,26.25,131,37.25,64.375,0.41333,-0.850037,-0.196777,-0.260376
-630.75,-278.75,68.5625,5.63,1.27,-3.18,-14.0625,12.0625,26.25,138,34.875,68.25,0.365601,-0.877319,-0.187805,-0.247803
-613.438,-297.812,52.5625,4.88,0.87,-4.8,-14.0625,12.0625,26.25,144.625,32.3125,72.4375,0.317993,-0.901062,-0.180542,-0.233032
-586.188,-304.438,33,2.29,-0.42,-7.87,-14.0625,12.0625,26.25,150.688,29.625,158.438,0.27179,-0.921082,-0.175171,-0.217041
-549.75,-300.875,8.5,1.59,-1.28,-9.33,-14.0625,12.0625,26.25,156.312,27,159.188,0.227722,-0.937195,-0.171875,-0.200684
-507.938,-285.625,-18.875,1.88,-2.27,-11,-7.75,-2.6875,33.0625,161.312,24.5,159.562,0.186401,-0.949646,-0.170837,-0.184998
-462.875,-246.312,-43.0625,7.97,-4.01,-13.15,-7.75,-2.6875,33.0625,165.75,22.3125,159.688,0.148987,-0.958557,-0.17157,-0.171692
-412.25,-179.625,-50.4375,12.56,-4.13,-13.73,-7.75,-2.6875,33.0625,169.562,20.75,159.688,0.116455,-0.964417,-0.172607,-0.162903
-359.312,-98.1875,-22,16.16,-4.06,-14.08,-7.75,-2.6875,33.0625,172.75,19.8125,159.938,0.0892944,-0.96814,-0.171021,-0.159607
-311.938,-11.6875,40.5,17.97,-3.72,-14.57,-7.75,-2.6875,33.0625,175.188,19.6875,160.75,0.067627,-0.970642,-0.164124,-0.16217
-269.062,-11.6875,40.5,16,-2.44,-14.3,-0.6875,-14.875,29.875,177,20.25,162.375,0.0514526,-0.972412,-0.150757,-0.170349
-228.938,69.625,119.438,13.51,-1.38,-12.86,-0.6875,-14.875,29.875,178.125,21.5,164.562,0.0401611,-0.973389,-0.13147,-0.183228
-192.938,189.125,241.5,11.37,-0.25,-10.72,-0.6875,-14.875,29.875,178.75,23.25,167.25,0.0321655,-0.973328,-0.108337,-0.199707
-168.125,223.75,256.875,9.02,0.89,-9.22,-0.6875,-14.875,29.875,179.188,25.375,170.125,0.0250854,-0.971863,-0.0838013,-0.218811
-163.312,231,244.125,5.49,3.35,-10.36,-0.6875,-14.875,29.875,179.75,27.625,172.875,0.0166016,-0.969177,-0.0599365,-0.238403
-177.938,231,244.125,5.49,4.34,-12.4,-3,-19.6875,28.25,-179.375,29.625,175.438,0.0055542,-0.965881,-0.0383911,-0.256104
-199.438,209,210.062,4.49,4.99,-14.18,-3,-19.6875,28.25,-178.25,31.375,177.5,-0.00750732,-0.96228,-0.0206909,-0.271118
-209.688,161.625,106.125,7.91,5.26,-15.38,-3,-19.6875,28.25,-176.938,33,179.062,-0.020752,-0.958374,-0.00769043,-0.284607
-196.688,160.188,69.8125,15.7,5.75,-15.83,-3,-19.6875,28.25,-175.75,34.625,180.188,-0.0320435,-0.954102,0.00158691,-0.297729
-161.625,161.25,71.5,18.34,6.57,-15.01,-3,-19.6875,28.25,-175.062,36.1875,181.125,-0.0395508,-0.949585,0.00982666,-0.310852
-115.125,161.25,71.5,18.34,6.57,-13.91,-11.0625,-24.0625,22,-175.062,37.8125,182.375,-0.0424194,-0.944946,0.0200195,-0.323853
-70.75,158.438,173.75,19.36,9.5,-13.28,-11.0625,-24.0625,22,-175.938,39.375,184.188,-0.0409546,-0.940369,0.0344238,-0.335815
-38,128.312,244.438,19.1,10.29,-13.46,-11.0625,-24.0625,22,-177.75,40.6875,186.562,-0.0354614,-0.93573,0.0537109,-0.346741
-13.125,127.812,312.312,18.72,11.06,-13.75,-11.0625,-24.0625,22,179.375,42,189.5,-0.0258789,-0.930237,0.0776367,-0.357727
12.5625,142.75,377.812,18.26,11.69,-14.37,-11.0625,-24.0625,22,175.562,43.25,193.062,-0.012146,-0.922974,0.105713,-0.369812
41.375,142.75,443.062,17.83,13.18,-15.11,-15.875,-23.375,19.1875,170.625,44.25,178.125,0.00610352,-0.913452,0.137634,-0.382935
74.125,158.438,506.688,17.99,13.97,-15.72,-15.875,-23.375,19.1875,164.438,44.8125,171.562,0.0291748,-0.901001,0.172974,-0.39679
112.938,181.75,569.562,17.97,14.7,-16.38,-15.875,-23.375,19.1875,157.188,44.625,164.062,0.057373,-0.88501,0.211304,-0.410889
155.812,187.688,632.625,17.41,15.56,-16.36,-15.875,-23.375,19.1875,149.188,43.5,155.812,0.0908813,-0.864746,0.252075,-0.424744
201.188,183.25,693.312,15.86,18.01,-13.15,-15.875,-23.375,19.1875,140.812,41.125,146.875,0.129761,-0.839783,0.294556,-0.437195
249,183.25,693.312,15.62,18.83,-11.48,-23.6875,-15.875,16.6875,132.75,37.375,137.625,0.17334,-0.809814,0.33783,-0.447205
290.688,169.25,746.125,15.51,19.44,-9.9,-23.6875,-15.875,16.6875,125.5,32.375,128.312,0.21991,-0.774719,0.381165,-0.454102
317.562,139.625,835.062,15.51,20.3,-7.88,-23.6875,-15.875,16.6875,119.25,26.3125,119.125,0.268188,-0.734192,0.4245,-0.45697
329.312,121.938,881.5,13.84,22.68,-4.06,-23.6875,-15.875,16.6875,114,19.1875,110.188,0.3172,-0.688232,0.467773,-0.454895
328.25,93.5625,928.25,12.28,24.02,-3.24,-23.6875,-15.875,16.6875,109.812,11.25,101.25,0.366272,-0.637268,0.510376,-0.446411
315.875,93.5625,928.25,12.28,24.02,-2.74,-28.1875,5.375,11.875,106.5,2.5,92.125,0.414795,-0.581787,0.551208,-0.430847
298.125,60.25,971.438,10.43,25.26,-2.23,-28.1875,5.375,11.875,103.875,-6.75,83,0.461792,-0.521729,0.589417,-0.408875
281.375,15.375,1031.56,4.95,29.27,-2.47,-28.1875,5.375,11.875,101.812,-16.375,73.875,0.506409,-0.45752,0.623657,-0.381165
268.688,-5.8125,1045.06,3.41,29.85,-2.81,-28.1875,5.375,11.875,99.9375,-26.3125,64.875,0.54834,-0.389709,0.652588,-0.348755
264.438,-31.625,1046.62,2.37,30.38,-2.58,-28.1875,5.375,11.875,98.125,-36.3125,56.0625,0.587402,-0.319031,0.674744,-0.312927
271.875,-31.625,1046.62,2.37,30.38,-2.58,-14.5625,28.75,6.1875,95.875,-46.375,47.5625,0.623657,-0.246094,0.689087,-0.275085
290.25,-62.6875,1038.69,-1.11,31.75,0.2,-14.5625,28.75,6.1875,92.625,-56.25,39.5625,0.656799,-0.171509,0.69519,-0.23645
313.375,-128.688,998,-2.19,31.66,2.27,-14.5625,28.75,6.1875,87,-65.9375,32.1875,0.686401,-0.0963745,0.692993,-0.198303
337.562,-159.938,962.062,-3.02,30.86,4.37,-14.5625,28.75,6.1875,75.1875,-74.875,25.5625,0.712097,-0.0218506,0.682922,-0.16156
358.625,-185.688,920.562,-5.67,28.4,8.9,-14.5625,28.75,6.1875,41.125,-81.75,19.625,0.733398,0.0509644,0.665894,-0.126892
373.25,-185.688,920.562,-8.34,27.25,9.69,11.1875,32.75,-1.0625,-22.5,-81.125,14.375,0.749756,0.120544,0.643738,-0.0946655
374.875,-198.375,869.75,-11.62,25.49,8.73,11.1875,32.75,-1.0625,-50.25,-74.75,9.6875,0.761292,0.184998,0.618042,-0.0648193
357.5,-202.938,729.375,-12.93,23.3,7.34,11.1875,32.75,-1.0625,-60.5,-67.875,5.625,0.768921,0.24231,0.590393,-0.0379639
325.062,-202.438,634.312,-9.04,18.91,3.38,11.1875,32.75,-1.0625,-65.5,-61.5,2.25,0.773682,0.291565,0.562317,-0.0153198
290.188,-203.625,538.938,-5.3,17.35,2.48,11.1875,32.75,-1.0625,-68.4375,-55.9375,359.625,0.776306,0.333984,0.534607,0.00213623
268.562,-203.625,538.938,-5.3,17.35,2.03,25.1875,14.25,-11.375,-70.375,-51,357.875,0.777893,0.371765,0.506409,0.0142212
263.938,-222.625,462.75,-1.98,16.21,3.3,25.1875,14.25,-11.375,-71.8125,-46.5,356.812,0.778992,0.406738,0.476746,0.0213013
269.938,-287.875,361.375,2.81,15.43,3.87,25.1875,14.25,-11.375,-72.9375,-42.3125,356.438,0.779541,0.439697,0.445435,0.0239258
279.438,-321.062,327.625,3.18,15.16,4.86,25.1875,14.25,-11.375,-73.9375,-38.375,356.625,0.779541,0.470947,0.412292,0.0228271
284.875,-348.312,299.188,2.79,15.23,6.05,25.1875,14.25,-11.375,-74.875,-34.6875,357.188,0.778992,0.500305,0.377563,0.0187378
284.625,-348.312,299.188,2.79,15.23,6.05,25.1875,-1.5625,-17.875,-75.75,-31.25,358.188,0.777649,0.527283,0.342285,0.012085
278.938,-365.438,268.938,2.63,14.32,5,23.75,-1.5625,-17.875,-76.6875,-28.1875,359.625,0.775452,0.551819,0.306824,0.00238037
273.938,-404.625,189.5,4.66,13.28,3.14,23.75,-1.5625,-17.875,-77.625,-25.5625,1.625,0.772278,0.574341,0.271301,-0.0112305
276.5,-429.688,149.188,6.56,12.59,3.15,23.75,-1.5625,-17.875,-78.6875,-23.3125,4.3125,0.767456,0.595581,0.235474,-0.0289307
288.375,-448.25,122.125,8.66,10.95,4.21,23.75,-1.5625,-17.875,-79.9375,-21.3125,7.4375,0.760681,0.615784,0.199341,-0.0494995
302.125,-448.25,122.125,8.53,9.93,5.53,16.5,-12.5,-23.6875,-81.4375,-19.5,10.75,0.751404,0.635498,0.162781,-0.0708618
316.625,-451.938,115.25,8.53,8.78,7.03,16.5,-12.5,-23.6875,-83.125,-17.8125,14.125,0.740479,0.653687,0.125854,-0.092041
316.625,-435.312,126.062,5.77,7.69,8.69,16.5,-12.5,-23.6875,-84.875,-16.1875,17.375,0.728149,0.670349,0.0891724,-0.111389
310.625,-414.5,135.688,0.51,5.33,13.78,16.5,-12.5,-23.6875,-86.625,-14.5625,20.375,0.715332,0.684814,0.0532227,-0.12854
292.125,-405.188,118.625,-2.73,4.57,17.45,16.5,-12.5,-23.6875,-87.6875,-13.25,23.3125,0.705933,0.692871,0.0195923,-0.14563
206.562,-405.188,118.625,-2.73,4.57,21.02,6.5,-20.5625,-23.6875,-87.9375,-12.3125,26.5625,0.700012,0.69458,-0.0117798,-0.165649
121.562,-422.25,80.6875,-5.14,4.29,21.02,6.5,-20.5625,-23.6875,-87.0625,-11.8125,30.375,0.699158,0.68811,-0.0401611,-0.18988
5.5625,-481.5,-5.3125,-2.09,5.61,24.82,6.5,-20.5625,-23.6875,-84.875,-11.5,34.4375,0.704285,0.672241,-0.0661621,-0.218445
-128.062,-516.75,-5.25,2,6.59,23.39,6.5,-20.5625,-23.6875,-81.3125,-11,38.375,0.715271,0.646423,-0.0916748,-0.249207
-260.812,-539.062,43.0625,6.18,7.71,21.28,6.5,-20.5625,-23.6875,-76.8125,-9.5625,41.6875,0.731079,0.61145,-0.118652,-0.278503
-370.875,-539.062,43.0625,6.18,11.19,18.62,-2.25,-25.375,-22.0625,-71.8125,-6.9375,43.875,0.750427,0.568787,-0.148315,-0.302368
-445.188,-544.188,132.562,11.09,13.57,19.59,-2.25,-25.375,-22.0625,-66.75,-2.9375,44.875,0.771545,0.519836,-0.181458,-0.318726
-488.625,-536.875,332.188,8.02,15.78,22.54,-2.25,-25.375,-22.0625,-61.6875,2.1875,44.875,0.793152,0.465332,-0.216553,-0.32782
-519.125,-519.625,394.188,5.6,17.31,26.6,-2.25,-25.375,-22.0625,-56.5625,8,44.25,0.814209,0.40564,-0.250854,-0.331055
-553.25,-499.25,426.25,0,18.48,34.04,-2.25,-25.375,-22.0625,-51.0625,14.1875,43.25,0.83374,0.340454,-0.282288,-0.330627
-598.688,-499.25,426.25,0,18.48,36.08,-13.0625,-18.375,-26.0625,-44.9375,20.25,42.1875,0.85083,0.270264,-0.308289,-0.328613
-655.5,-467.812,427.625,-2.95,18.56,35.79,-13.0625,-18.375,-26.0625,-37.875,25.8125,41.375,0.864868,0.196533,-0.326233,-0.327026
-714.25,-344.688,349.875,-4.71,17.36,33.37,-13.0625,-18.375,-26.0625,-30.0625,30.4375,41,0.875061,0.121521,-0.335266,-0.327209
-759.812,-275.75,304.188,1.17,16.14,28.28,-13.0625,-18.375,-26.0625,-21.5,34.125,40.875,0.881287,0.0471191,-0.336121,-0.328857
-785.188,-206.812,277.688,5.37,15.55,24.99,-13.0625,-18.375,-26.0625,-12.4375,36.8125,41,0.883911,-0.0254517,-0.329712,-0.330627
-792.625,-206.812,277.688,5.37,15.55,24.99,-13.0625,-0.1875,-22.25,-3.0625,38.5,41,0.88385,-0.0947876,-0.317017,-0.330688
-777.5,-138.688,274.562,9.39,14.37,21.55,-24.1875,-0.1875,-22.25,6.3125,39.125,40.6875,0.882141,-0.159241,-0.298584,-0.327576
-738.312,0,308.625,15.26,7.29,17.52,-24.1875,-0.1875,-22.25,15.25,38.5625,40.0625,0.879761,-0.217529,-0.274963,-0.321167
-683.438,63.5,323.125,14.85,4.86,20.05,-24.1875,-0.1875,-22.25,23.5625,36.9375,39.1875,0.876648,-0.270142,-0.246582,-0.3125
-637.062,120.75,327.125,13.85,3.02,23.32,-24.1875,-0.1875,-22.25,31.1875,34.4375,38.3125,0.87207,-0.319153,-0.21344,-0.303467
-620.938,120.75,327.125,13.85,3.02,27.25,-26,17.6875,-10.5,38.375,31.375,37.75,0.864258,-0.367004,-0.175903,-0.295593
-639.5,166.438,316.25,9.62,1.94,26.26,-26,17.6875,-10.5,45.4375,28.3125,37.5625,0.851257,-0.415466,-0.137268,-0.289612
-676.312,135.188,237.375,8.73,4.88,25.52,-26,17.6875,-10.5,52.625,25.6875,37.8125,0.831787,-0.465454,-0.101501,-0.285034
-716.312,71.125,192,9.29,5.66,23.54,-26,17.6875,-10.5,60.125,23.75,38.3125,0.805664,-0.517151,-0.0706787,-0.280151
-752.938,-0.1875,167,9.87,4.7,18.32,-26,17.6875,-10.5,67.9375,22.3125,38.8125,0.773865,-0.569824,-0.0448608,-0.272827
-778.188,-0.1875,167,9.87,4.7,18.32,-26,26.1875,-1.5,76,20.9375,39.0625,0.737732,-0.621765,-0.0217896,-0.262146
-790.625,-48.0625,164.625,9.04,4.28,17.12,-19.375,26.1875,-1.5,84,19.375,39.25,0.697815,-0.671631,0.00158691,-0.248901
-800.5,-41.3125,193.75,6.45,4.28,16.46,-19.375,26.1875,-1.5,92.0625,17.5,39.4375,0.653748,-0.718933,0.0272827,-0.234436
-818.938,-19.0625,203.688,2.45,6.64,13.78,-19.375,26.1875,-1.5,100.25,15.5625,39.875,0.604858,-0.763489,0.0552368,-0.219482
-845.562,-0.8125,198.75,1.32,8.96,12.24,-19.375,26.1875,-1.5,108.562,13.6875,40.75,0.550659,-0.804871,0.0839233,-0.204651
-873.062,-0.8125,198.75,1.32,8.96,9.18,-14.5625,23.0625,18.1875,117,12.0625,42.0625,0.491821,-0.84259,0.110962,-0.189392
-889.812,-2.0625,177.75,-0.1,11.65,5.59,-14.5625,23.0625,18.1875,125.5,10.6875,43.4375,0.430176,-0.876282,0.133118,-0.17157
-887,-103.438,95.125,-5.41,12.57,-1.99,-14.5625,23.0625,18.1875,133.812,9.375,44.375,0.368347,-0.905396,0.148376,-0.150452
-856.375,-163.312,36.3125,-7.14,10.51,-6.18,-14.5625,23.0625,18.1875,141.625,7.9375,199,0.309021,-0.929626,0.155884,-0.126465
-798.875,-193.812,-24.0625,-7.22,7.81,-9.54,-14.5625,23.0625,18.1875,148.75,6.5625,198.688,0.2547,-0.948792,0.15625,-0.102295
-714.438,-193.812,-24.0625,-7.22,7.81,-9.54,-14.5625,7.6875,30.25,154.812,5.3125,197.875,0.207214,-0.963074,0.151794,-0.0807495
-611.75,-185.062,-68.8125,-4.28,3.3,-11.77,-12.6875,7.6875,30.25,159.812,4.375,197.062,0.166931,-0.972961,0.146057,-0.06427
-508.375,-83.625,-61.1875,-1.21,1.59,-9.09,-12.6875,7.6875,30.25,164,3.75,196.5,0.132507,-0.979492,0.14209,-0.0529785
-426.25,-44.25,-28.6875,-1.51,1.97,-7.71,-12.6875,7.6875,30.25,167.562,3.4375,196.25,0.102417,-0.983704,0.140808,-0.0452271
-367.812,-33.1875,-9.125,-7.22,2.85,-10.29,-12.6875,7.6875,30.25,170.688,3.125,196.25,0.0760498,-0.986328,0.14093,-0.0386963
-321.562,-33.1875,-9.125,-7.22,2.85,-10.29,-7.5,-10.5,31.5,173.312,2.8125,196.062,0.0537109,-0.988159,0.139771,-0.032959
-271.375,-31.5,-21.3125,-10.72,2.82,-11.91,-7.5,-10.5,31.5,175.5,2.6875,195.5,0.0351562,-0.989807,0.134888,-0.0286865
-222.875,-4.9375,-120.5,-12.34,4.26,-9.4,-7.5,-10.5,31.5,177.375,2.6875,194.375,0.0194702,-0.991577,0.125244,-0.0264893
-184.812,7.875,-168.625,-9.12,4.44,-8.19,-7.5,-10.5,31.5,179,2.8125,192.75,0.0057373,-0.993408,0.11145,-0.0257568
-158.5,16,-198.375,-6.3,4.56,-7.1,-7.5,-10.5,31.5,-179.438,3,190.875,-0.00689697,-0.995117,0.0950928,-0.0258179
-143.875,16,-198.375,-6.3,4.56,-7.1,-7.5,-19.375,27.5,-178,3.25,188.938,-0.0193481,-0.996399,0.078125,-0.0273438
-139.25,32.625,-205.375,-4.05,4.34,-6.93,-6,-19.375,27.5,-176.562,3.75,187.125,-0.0316162,-0.99707,0.0623169,-0.03125
-136.125,60.75,-160.938,-0.59,2.58,-5.46,-6,-19.375,27.5,-175.188,4.625,185.562,-0.0435791,-0.997131,0.0488281,-0.0384521
-130.75,99.375,-128.688,-0.65,2.67,-4.01,-6,-19.375,27.5,-173.875,5.9375,184.312,-0.0551147,-0.996521,0.0378418,-0.0498047
-125,146.562,-103.312,-0.15,2.48,-2.89,-6,-19.375,27.5,-172.562,7.6875,183.25,-0.0661011,-0.995239,0.0286865,-0.0656128
-118,197.688,-103.312,-0.15,2.48,-2.89,-6,-19.375,27.5,-171.312,9.8125,183.25,-0.0761719,-0.993286,0.020874,-0.0844116
-107.5,233.125,-84.75,-0.83,2.54,-2.39,-4.1875,-23.0625,26.25,-170.188,12,182.375,-0.085022,-0.990845,0.0131836,-0.104126
-94.25,243.312,-99.625,-2.31,3.11,-2.65,-4.1875,-23.0625,26.25,-169.125,14.1875,180.438,-0.0927124,-0.987976,0.00378418,-0.123718
-78.4375,243.688,-133.125,-2.7,3.04,-3.08,-4.1875,-23.0625,26.25,-168.125,16.0625,179,-0.0990601,-0.984924,-0.00848389,-0.141663
-58.5,228.5,-174.125,-1.52,3.67,-0.51,-4.1875,-23.0625,26.25,-167.125,17.625,177.125,-0.103821,-0.981812,-0.024292,-0.157227
-34.3125,204.375,-174.125,-1.52,3.67,-0.51,-4.1875,-23.0625,21.1875,-166.25,19,174.875,-0.107178,-0.978394,-0.0437012,-0.171448
-10.75,194.5,-215.625,0.91,3.39,1.85,-6,-25.6875,21.1875,-165.312,20.3125,172.25,-0.109314,-0.974243,-0.0656738,-0.186035
6.75,204.25,-242.375,7.24,2.69,6.82,-6,-25.6875,21.1875,-164.312,21.8125,169.625,-0.110901,-0.969116,-0.0878296,-0.201965
11.1875,222.562,-219.812,11.48,2.64,9.67,-6,-25.6875,21.1875,-163.188,23.4375,167.188,-0.113159,-0.963074,-0.10791,-0.219177
-3.8125,236.5,-181.5,12.22,2.6,9.71,-6,-25.6875,21.1875,-161.75,25.1875,165.125,-0.117004,-0.956177,-0.12439,-0.237854
-34.0625,247.625,-181.5,12.22,2.6,9.71,-4.875,-27.1875,20.375,-160.062,27.0625,163.562,-0.122681,-0.948547,-0.136719,-0.257812
-69.0625,256.25,-139.188,11.66,2.9,8.73,-4.875,-27.1875,20.375,-158.125,29.0625,162.312,-0.129578,-0.94043,-0.145813,-0.278503
-95.5,259.375,-90.75,8.55,3.89,0.01,-4.875,-27.1875,20.375,-156.125,31.0625,161.25,-0.13623,-0.931763,-0.153564,-0.2995
-97.5,262.688,-88.3125,8.01,4.2,-1.48,-4.875,-27.1875,20.375,-154.312,33,160.125,-0.140808,-0.922852,-0.161621,-0.320007
-73.4375,262.438,-94.4375,7.12,4.71,-1.46,-4.875,-27.1875,20.375,-152.625,34.75,158.75,-0.1427,-0.914062,-0.170959,-0.338989
-36.8125,252.812,-94.4375,7.12,4.71,-1.46,-4.875,-27.1875,20.375,-151.125,36.25,223.812,-0.143127,-0.905579,-0.182068,-0.355408
-7.25,229.938,-110.812,7.38,6.07,4.99,-4.875,-27.875,20,-149.562,37.375,222.5,-0.143982,-0.896912,-0.19458,-0.370056
-2.8125,212.312,-140.688,12.14,6.14,10.05,-4.875,-27.875,20,-147.562,38.375,221.875,-0.147095,-0.887695,-0.206787,-0.384155
-28.25,204.125,-128.125,14.38,5.9,10.01,-4.875,-27.875,20,-145.188,39.3125,221.938,-0.153015,-0.877808,-0.216553,-0.398865
-70.8125,202.312,-104.625,15.83,5.97,5.11,-4.875,-27.875,20,-142.375,40.3125,222.5,-0.161499,-0.867249,-0.2229,-0.414795
-117.938,205,-104.625,15.83,5.97,5.11,-4.875,-30.1875,16.375,-139.25,41.375,223.375,-0.171753,-0.85614,-0.226379,-0.431641
-154.062,206.938,-83,16.23,5.59,1.79,-5.5625,-30.1875,16.375,-136.062,42.375,224.188,-0.182129,-0.84491,-0.227844,-0.448425
-165.625,203.062,-45.875,16.2,4.71,-3.66,-5.5625,-30.1875,16.375,-133.062,43.4375,224.625,-0.190735,-0.834167,-0.228394,-0.464355
-149.312,194.312,-30.625,15.18,4.58,-2.12,-5.5625,-30.1875,16.375,-130.438,44.375,224.562,-0.196472,-0.824158,-0.228943,-0.479248
-116.438,187.75,-19.25,15.62,5.31,2.08,-5.5625,-30.1875,16.375,-128,45.4375,224,-0.199829,-0.814453,-0.229797,-0.493896
-90.5,191.188,-19.25,15.62,5.31,2.08,-5.5625,-30.1875,16.375,-125.438,46.5625,224,-0.202271,-0.803955,-0.230042,-0.509705
-89.5,207.5,-8.0625,16.81,5.42,5.97,-5.5625,-31.5625,11,-122.375,47.875,223.25,-0.205139,-0.792236,-0.228394,-0.527405
-113.5,227.25,24.75,17.44,6.87,9.32,-5.5625,-31.5625,11,-118.75,49.25,221.938,-0.209839,-0.779114,-0.223816,-0.546692
-156.5,239.062,27.25,16.98,7.3,6.38,-5.5625,-31.5625,11,-114.438,50.5,222,-0.217529,-0.764648,-0.216675,-0.566589
-206.188,239.5,18.0625,17.47,7.11,2.91,-5.5625,-31.5625,11,-109.688,51.5,222.438,-0.227722,-0.74939,-0.208252,-0.585815
-237.375,228.188,18.0625,17.47,7.11,2.91,-5.5625,-31.5625,7.75,-105,52.25,223.125,-0.238342,-0.734558,-0.199768,-0.603027
-235.5,206.938,11.75,18.35,6.58,-1.22,-6.75,-33.0625,7.75,-100.75,52.75,223.562,-0.247314,-0.720825,-0.192261,-0.618286
-206.5,187.938,21.0625,20.26,6.92,4.59,-6.75,-33.0625,7.75,-96.75,53.1875,223.75,-0.25415,-0.707886,-0.185364,-0.632446
-178.938,179.875,40.375,21.62,6.81,6,-6.75,-33.0625,7.75,-92.75,53.75,223.688,-0.259399,-0.694763,-0.177612,-0.646912
-173.312,185.312,67.625,23.39,7.29,8.02,-6.75,-33.0625,7.75,-88.25,54.4375,223.312,-0.263306,-0.680359,-0.16803,-0.662964
-183.5,204.188,67.625,23.39,7.29,8.02,-6.75,-33.0625,0.875,-83.0625,55.1875,222.688,-0.266174,-0.664307,-0.155884,-0.680847
-204,226.375,99.5,24.05,7.82,8.18,-8.5625,-33.0625,0.875,-76.9375,56.0625,221.812,-0.267822,-0.645996,-0.140869,-0.700806
-228.812,254.938,172.062,25.77,6.9,5.53,-8.5625,-33.0625,0.875,-69.8125,56.875,220.562,-0.267395,-0.625,-0.123474,-0.7229
-244.5,288.625,217.438,27.24,6.11,5.37,-8.5625,-33.0625,0.875,-61.6875,57.5,218.812,-0.263367,-0.601562,-0.10437,-0.746887
-243.25,323.562,265.688,27.8,6.17,8.75,-8.5625,-33.0625,0.875,-52.625,57.75,216.5,-0.255005,-0.575562,-0.0841675,-0.7724
-231.562,359.562,265.688,27.8,6.17,8.75,-8.5625,-33.0625,0.875,-42.8125,57.5,216.5,-0.242798,-0.546936,-0.0625,-0.798706
-227.688,388.062,310.438,27.59,6.66,11.82,-10.5,-32.6875,-6.875,-32.75,56.3125,213.812,-0.228577,-0.515381,-0.0388794,-0.825012
-241.938,412.125,351.75,29.56,7.15,11.82,-10.5,-32.6875,-6.875,-22.9375,54.125,208.188,-0.213989,-0.47998,-0.0133667,-0.850647
-268.438,440,363.625,31.21,5.19,8.98,-10.5,-32.6875,-6.875,-13.875,51.0625,205.562,-0.198792,-0.441467,0.013855,-0.874878
-289.625,459.812,391.125,32.36,3.47,6.54,-10.5,-32.6875,-6.875,-5.9375,47.375,202.75,-0.180847,-0.401855,0.0418701,-0.896667
-286.375,456.125,391.125,32.36,3.47,6.54,-10.5,-32.6875,-16.5,1,43.3125,199.5,-0.157532,-0.362549,0.069519,-0.915955
-257.625,439.062,440,34.4,0.53,7.34,-12.6875,-27.5,-16.5,7.125,38.75,195.5,-0.127075,-0.322693,0.0961304,-0.932983
-218.125,430.938,593.5,34.39,1.63,10.83,-12.6875,-27.5,-16.5,12.5625,33.5,190.688,-0.0888672,-0.280029,0.121948,-0.948059
-187,447.938,685.938,34.65,3.67,11.94,-12.6875,-27.5,-16.5,17.3125,27.125,185.125,-0.0431519,-0.230713,0.148254,-0.960693
-177.938,502.625,787.375,33.87,9.6,7.69,-12.6875,-27.5,-16.5,21.375,19.3125,178.812,0.00982666,-0.172668,0.176025,-0.969055
-186.688,577.812,787.375,33.87,9.6,7.69,-12.6875,-27.5,-16.5,21.375,19.3125,178.812,0.0700073,-0.106506,0.204468,-0.97052
-193.312,643.125,890.375,31.14,11.6,3.53,-12.6875,-18.25,-28,24.6875,10.25,171.75,0.136658,-0.0349121,0.230957,-0.962708
-180.562,676.625,1055.31,19.99,14.4,-1.85,-12.6875,-18.25,-28,27.875,-10.25,155.188,0.207642,0.0386963,0.252563,-0.944214
-149.375,675.938,1078.69,8.65,15.11,-7.39,-12.6875,-18.25,-28,27.1875,-20.6875,146.125,0.278381,0.111877,0.267761,-0.915588
-108.5,661,1058.94,4.51,13.79,-8.64,-12.6875,-18.25,-28,24.625,-30.75,137.188,0.344299,0.183411,0.275696,-0.87854
-55.375,645.188,1058.94,4.51,13.79,-8.64,-12.6875,-18.25,-28,19.6875,-30.75,137.188,0.402893,0.251404,0.275757,-0.835693
9.5,612.312,1011.06,2.43,11.97,-8.46,-6.75,-5.6875,-34.0625,11.75,-39.9375,128.5,0.453979,0.314941,0.267822,-0.789307
78.0625,564.25,925.75,2.29,11.82,-1.55,-6.75,-5.6875,-34.0625,0.1875,-53.625,112.062,0.498535,0.373657,0.253052,-0.740173
132.188,513.375,907.188,2.33,11.82,-1.1,-6.75,-5.6875,-34.0625,-14.8125,-57.0625,103.938,0.538025,0.427612,0.233215,-0.687988
162.375,470,900.188,1.71,12.36,-0.83,-6.75,-5.6875,-34.0625,-31.5625,-57.4375,95.625,0.573364,0.476685,0.209167,-0.63269
176.938,430.438,900.188,1.71,12.36,-0.83,-6.75,-5.6875,-34.0625,-46.9375,-54.8125,87.0625,0.604919,0.520203,0.181702,-0.574829
180.938,389.125,895,0.21,13.66,-0.43,5.375,-5,-31.5625,-58.9375,-50.0625,87.0625,0.632263,0.558167,0.151855,-0.515381
179.125,353.188,857.562,-0.08,13.27,-0.43,5.375,-5,-31.5625,-67.625,-44.0625,69.5625,0.655151,0.590637,0.120361,-0.455383
176.562,318.375,831.375,2.07,11.8,-1.44,5.375,-5,-31.5625,-73.8125,-37.3125,60.9375,0.673401,0.617981,0.0869751,-0.396301
180.875,276.375,817.75,2.72,12.56,1.36,5.375,-5,-31.5625,-78.375,-30.1875,52.4375,0.687073,0.640808,0.0501709,-0.338745
195.938,221.812,817.75,2.72,12.56,1.36,5.375,-5,-31.5625,-81.8125,-22.75,44.25,0.696533,0.659058,0.00994873,-0.283508
205.688,159.625,805.125,1.92,12.66,4.27,7,-17.875,-28.375,-84.375,-15.375,36.5,0.702271,0.672302,-0.0325317,-0.23175
201.25,97.5625,739.75,-2.33,11.7,7.93,7,-17.875,-28.375,-86.375,-8.3125,29.3125,0.704895,0.680664,-0.0755615,-0.184631
185.125,41.375,683.125,-4.28,9.09,9.4,7,-17.875,-28.375,-88,-1.6875,22.9375,0.704712,0.684875,-0.117676,-0.143127
166.188,-8.25,616.688,-3.94,7.51,10.05,7,-17.875,-28.375,-89.5,4.1875,17.375,0.701965,0.686096,-0.157898,-0.107605
150.375,-49.5,616.688,-3.94,7.51,10.05,7,-17.875,-28.375,-89.5,4.1875,17.375,0.697205,0.685181,-0.195862,-0.0778809
134.812,-84.3125,551.688,-2.92,6.8,12.16,-3.1875,-26,-21,-90.875,9.5625,12.75,0.691895,0.68158,-0.232056,-0.053894
102.688,-119.938,444.062,-2.33,6.08,13.16,-3.1875,-26,-21,-93.1875,18.5,5.9375,0.687256,0.674744,-0.266724,-0.0358276
52.9375,-155.5,393.375,-1.98,5.08,12.03,-3.1875,-26,-21,-94,22.1875,3.9375,0.68335,0.665222,-0.299988,-0.0236206
6.6875,-189.562,344.75,-1.67,4.54,11.48,-3.1875,-26,-21,-94.8125,25.375,2.8125,0.679382,0.654114,-0.332031,-0.0169678
-26,-223.938,344.75,-1.67,4.54,11.48,-3.1875,-26,-21,-94.8125,25.375,2.8125,0.679382,0.654114,-0.332031,-0.0169678
-49.4375,-253.125,297.062,-3.02,3.93,10.94,-15.375,-25,-19,-95.6875,28,2.5625,0.675049,0.642273,-0.362732,-0.0153198
-66.1875,-270,183.562,-4.77,1.98,6.01,-15.375,-25,-19,-97.625,31.5,4.1875,0.665222,0.619629,-0.415894,-0.024353
-70.375,-270.312,123,-3.53,0.99,5.12,-15.375,-25,-19,-98.6875,32.375,5.5,0.659424,0.611694,-0.435791,-0.0319824
-52.0625,-243.812,77.625,0.46,0.82,7,-15.375,-25,-19,-99.75,32.8125,6.8125,0.653503,0.60675,-0.450867,-0.0390015
-25.625,-200.438,77.625,0.46,0.82,7,-15.375,-25,-19,-100.688,33.0625,6.8125,0.648254,0.603638,-0.462036,-0.0441895
-9.375,-153.312,54.25,2.12,1.15,8.14,-24.6875,-18.6875,-15.6875,-101.25,33.3125,7.75,0.644958,0.600708,-0.470032,-0.0473022
-11.8125,-103.125,47.8125,3.71,1.94,8.06,-24.6875,-18.6875,-15.6875,-101.375,33.6875,8.5625,0.644592,0.596985,-0.475159,-0.0484619
-29.625,-51.375,54.0625,6.26,3.01,9.01,-24.6875,-18.6875,-15.6875,-100.875,34.1875,8.4375,0.647705,0.591675,-0.4776,-0.0478516
-57.5,-0.3125,64.25,6.36,3.26,7.8,-24.6875,-18.6875,-15.6875,-99.6875,34.875,8.0625,0.654602,0.583801,-0.478027,-0.0461426
-98.8125,43.0625,64.25,6.36,3.26,7.8,-24.6875,-18.6875,-15.6875,-98,35.5625,8.0625,0.664368,0.573486,-0.477173,-0.0453491
-142.75,61.625,63.9375,5.37,4.28,7.11,-27.25,-17.1875,-11.6875,-95.75,36.0625,7.75,0.675964,0.561157,-0.475281,-0.0474854
-189.125,59.5,13,4.77,8.95,5.88,-27.25,-17.1875,-11.6875,-93.1875,36.25,8.9375,0.688904,0.547119,-0.472351,-0.0541382
-237.625,44.1875,-25.1875,3.97,10.44,5.63,-27.25,-17.1875,-11.6875,-90.3125,36,10.75,0.702332,0.531372,-0.468994,-0.0664673
-286.062,12.5,-66.0625,5.64,14.2,7.81,-27.25,-17.1875,-11.6875,-87.3125,35.375,13.625,0.71521,0.51355,-0.466309,-0.0854492
-337.312,-39.5,-66.0625,5.64,14.2,7.81,-27.25,-17.1875,-11.6875,-87.3125,35.375,13.625,0.71521,0.51355,-0.465881,-0.111938
-392.625,-116.688,-99.875,8.87,18.62,4.95,-27.6875,-14.1875,-14.5,-84.375,34.5,17.5,0.726501,0.492615,-0.470154,-0.145203
-442.062,-220.125,-96.6875,11.34,21.4,4.09,-27.6875,-14.1875,-14.5,-79.1875,33.3125,27.875,0.738037,0.436768,-0.480591,-0.183167
-479.438,-334.188,-52.8125,12.26,22.67,5.64,-27.6875,-14.1875,-14.5,-77.0625,33.6875,33.625,0.737122,0.399658,-0.497192,-0.222961
-511,-437,19.8125,12.04,24.66,8.84,-27.6875,-14.1875,-14.5,-75.1875,35.0625,39.25,0.732117,0.355042,-0.519287,-0.261292
-534,-522.312,19.8125,12.04,24.66,8.84,-27.6875,-14.1875,-14.5,-75.1875,35.0625,39.25,0.732117,0.303345,-0.545471,-0.294983
-539.188,-583.125,109.5,11.12,24.68,9.85,-27.6875,-11.0625,-15.25,-73.75,37.5625,44.3125,0.723511,0.246704,-0.573364,-0.321228
-518.25,-605.125,288.938,10.14,24.21,13.83,-27.6875,-11.0625,-15.25,-72.625,45.5,51.5625,0.700012,0.1875,-0.60022,-0.338501
-480,-586.5,365.875,8.38,23.87,19.1,-27.6875,-11.0625,-15.25,-72.5625,50.375,53.4375,0.689026,0.127014,-0.623352,-0.347229
-446.375,-532.625,423.375,7.44,22.99,19.9,-27.6875,-11.0625,-15.25,-72.25,55.625,54.25,0.68103,0.0664062,-0.640137,-0.349304
-429.688,-448.688,423.375,7.44,22.99,19.9,-27.6875,-11.0625,-15.25,-72.25,55.625,54.25,0.677307,0.00726318,-0.648499,-0.347412
-426.188,-339.562,455.25,6.18,22.13,19.37,-32.0625,-4.875,-5.0625,-70.9375,60.8125,54.3125,0.677795,-0.0490112,-0.647949,-0.343994
-427.75,-223.5,448.438,7.3,18.47,14.01,-32.0625,-4.875,-5.0625,-61.1875,70.125,53.0625,0.682312,-0.100891,-0.638855,-0.340759
-426.812,-105.25,418.188,8.41,16.88,12.32,-32.0625,-4.875,-5.0625,-50.125,73.4375,52.25,0.690247,-0.147095,-0.622253,-0.338745
-415.938,5,377.25,10.41,15.57,11.67,-32.0625,-4.875,-5.0625,-34.4375,75.25,51.5625,0.700195,-0.187378,-0.600037,-0.338501
-399.25,93.0625,377.25,10.41,15.57,11.67,-32.0625,-4.875,-5.0625,-34.4375,75.25,51.5625,0.710815,-0.222412,-0.573792,-0.340576
-387.375,157.188,332.875,15.04,13.91,11.99,-30.5625,6.25,6.6875,-17.0625,75.25,51.1875,0.720825,-0.253845,-0.545044,-0.344849
-383.375,194.562,271.75,21.5,12.94,13.23,-30.5625,6.25,6.6875,9.75,71.75,51.3125,0.729004,-0.283875,-0.515137,-0.350159
-388.312,201.812,274.562,25.31,11.65,13.8,-30.5625,6.25,6.6875,19.5,69.1875,51.5,0.735535,-0.314148,-0.484009,-0.355042
-398.938,198.875,303.812,28.1,8.85,16.28,-30.5625,6.25,6.6875,28.125,66.1875,51.5625,0.74115,-0.345886,-0.450195,-0.358215
-416.062,205.5,303.812,28.1,8.85,16.28,-30.5625,6.25,6.6875,36.0625,66.1875,51.5625,0.745911,-0.380127,-0.412292,-0.359375
-448.625,217.875,348.5,27.46,9.11,18.25,-28.5,12.5625,5.5625,43.6875,62.625,51.4375,0.748291,-0.418091,-0.369629,-0.358765
-503.375,224.25,417.125,22.25,10.88,15.1,-28.5,12.5625,5.5625,50.875,54.125,51.0625,0.746582,-0.458862,-0.32373,-0.35675
-557.5,216.625,403.562,15.32,9.96,11.98,-28.5,12.5625,5.5625,57.5625,49.9375,51.0625,0.739746,-0.500183,-0.278259,-0.35376
-583.25,185,352.188,12.49,9.04,13.13,-28.5,12.5625,5.5625,63.875,46.375,51.4375,0.727295,-0.540283,-0.237366,-0.350403
-586.375,129.312,352.188,12.49,9.04,13.13,-28.5,12.5625,5.5625,63.875,46.375,51.4375,0.708557,-0.579651,-0.20343,-0.34729
-591.562,56.875,277.375,10.82,8.16,14.8,-25.75,17.375,9.1875,70.125,43.6875,52.1875,0.682983,-0.619812,-0.176575,-0.34375
-615.5,-25.8125,156.75,12.2,11.21,16.28,-25.75,17.375,9.1875,84.3125,40.5,54.9375,0.650452,-0.662048,-0.15509,-0.338501
-657.938,-104.812,156.75,14.6,12.04,14.51,-25.75,17.375,9.1875,92.5,39.1875,56.75,0.611389,-0.706299,-0.135315,-0.330261
-712.125,-161.5,143,15.59,12.13,10.92,-25.75,17.375,9.1875,101.062,37.375,58.6875,0.567383,-0.75061,-0.113342,-0.319092
-758.625,-178.812,163.688,15.59,12.13,10.92,-25.75,17.375,9.1875,101.062,37.375,58.6875,0.520752,-0.792297,-0.0870972,-0.305786
-777.125,-162.062,203.312,14.48,12.63,4.93,-21.6875,18.5,15.6875,109.312,35.0625,60.8125,0.473511,-0.829834,-0.0570068,-0.289612
-769.312,-151.188,249.688,9.48,12.24,1.34,-21.6875,18.5,15.6875,124.062,29.1875,64.6875,0.427002,-0.862488,-0.0249634,-0.270508
-738.5,-151.938,285.188,5.55,10.12,-0.86,-21.6875,18.5,15.6875,130.312,26.125,66.4375,0.382935,-0.889038,0.0067749,-0.250916
-680.938,-137.5,290.375,-2.04,4.77,-4.03,-21.6875,18.5,15.6875,135.688,23.5,68.3125,0.343018,-0.909363,0.0350952,-0.232788
-599.312,-119.875,260.688,-2.04,4.77,-4.03,-21.6875,18.5,15.6875,135.688,23.5,68.3125,0.343018,-0.909363,0.0350952,-0.232788
-502.562,-118.75,202.688,-3.92,2.87,-2.95,-16.5625,6.375,28.375,140.25,21.3125,187,0.308411,-0.924622,0.0570679,-0.216064
-404.562,-137.938,137.062,-5.87,2.83,1.37,-16.5625,6.375,28.375,147.312,17.625,189.5,0.25647,-0.946106,0.0786133,-0.181396
-322.875,-182,76.1875,-5.76,4.57,2.85,-16.5625,6.375,28.375,150.25,15.625,189.438,0.236572,-0.954956,0.0792847,-0.160767
-270.188,-229.375,18.6875,-4.53,4.39,1.6,-16.5625,6.375,28.375,153,13.5,188.75,0.218445,-0.963135,0.0742188,-0.138428
-239.625,-265.875,-36.75,-4.53,4.39,1.6,-16.5625,6.375,28.375,153,13.5,188.75,0.218445,-0.963135,0.0742188,-0.138428
-217.875,-284.062,-77.75,-2.85,3.67,0.89,-12.875,-3.5625,32.0625,155.5,11.375,187.625,0.201477,-0.97052,0.0651855,-0.115295
-201.188,-282.062,-92.875,0.09,1.53,3.83,-12.875,-3.5625,32.0625,159.875,7.125,185.25,0.170105,-0.981812,0.0452881,-0.071167
-193.438,-264.438,-81.75,-0.92,1.4,4.74,-12.875,-3.5625,32.0625,161.875,5.1875,184.438,0.154602,-0.98584,0.0383301,-0.0522461
-192.875,-229.062,-57.9375,-2.04,2.04,5.99,-12.875,-3.5625,32.0625,163.875,3.625,183.875,0.138367,-0.989136,0.0338745,-0.0370483
-199.312,-180.25,-35.625,-2.04,2.04,5.99,-12.875,-3.5625,32.0625,163.875,3.625,183.875,0.138367,-0.989136,0.0338745,-0.0250854
-217.562,-137.812,-15.125,-3.27,3.15,3.12,-5.5,-9.875,32.875,166,2.375,183.625,0.120544,-0.991882,0.0316772,-0.0250854
-237.375,-104.188,1.4375,-4.66,3.91,-0.59,-5.5,-9.875,32.875,170.688,0.75,183.625,0.0805054,-0.996216,0.0318604,-0.00933838
-244.562,-66.4375,10.1875,-5.4,4.07,-2.12,-5.5,-9.875,32.875,173,0.4375,183.688,0.060791,-0.99762,0.0325928,-0.00585938
-235.562,-33.5,9.8125,-5.94,4.55,-1.11,-5.5,-9.875,32.875,175,0.3125,183.688,0.0430298,-0.998535,0.0325928,-0.00439453
-210.562,-10.125,-0.625,-5.94,4.55,-1.11,-5.5,-9.875,32.875,175,0.3125,183.688,0.0430298,-0.998535,0.0325928,-0.00500488
-179.938,11.875,-20.125,-5.79,4.45,-0.26,-1.5,-16.1875,30,176.75,0.4375,183.5,0.027832,-0.999146,0.0310059,-0.00787354
-155.062,37.6875,-43.1875,-4.8,4.07,1.53,-1.5,-16.1875,30,179.625,1.4375,182.5,0.00262451,-0.999695,0.0221558,-0.0129395
-139.625,63.375,-65.5,-2.46,4.14,2.62,-1.5,-16.1875,30,-178.938,2.3125,181.688,-0.00927734,-0.999634,0.0150146,-0.0205078
-138,92.25,-86.375,-0.66,4.5,2.55,-1.5,-16.1875,30,-177.438,3.4375,180.75,-0.0220947,-0.999268,0.0065918,-0.0303955
-147.812,120.062,-101.938,-0.66,4.5,2.55,-1.5,-16.1875,30,-177.438,3.4375,180.75,-0.0220947,-0.999268,0.0065918,-0.0419922
-162.438,141,-105.625,1.55,4.49,1.81,-1.5,-20.25,28.25,-175.812,4.75,179.75,-0.0361328,-0.998474,-0.00219727,-0.0552368
-170.438,160.438,-94.9375,3.52,4.2,0.33,-1.5,-20.25,28.25,-172.312,7.9375,178.062,-0.0650024,-0.995239,-0.0165405,-0.0709839
-166.438,189.125,-76.625,3.1,4.33,0.69,-1.5,-20.25,28.25,-170.688,10,177.438,-0.078186,-0.992676,-0.0220337,-0.0894775
-156.25,221.5,-61.8125,3.39,4.3,1.4,-1.5,-20.25,28.25,-169,12.25,176.75,-0.0906372,-0.98938,-0.0275269,-0.110107
-148.875,248.312,-59.75,3.39,4.3,1.4,-1.5,-20.25,28.25,-169,12.25,176.75,-0.0906372,-0.98938,-0.0275269,-0.110107
-148.875,272.188,-66.3125,5.89,4.21,3.11,-2.1875,-24,23.75,-167.312,14.6875,176.062,-0.103027,-0.985229,-0.0337524,-0.13269
-159.188,281.188,-72.375,8.51,4.37,4.53,-2.1875,-24,23.75,-163.188,19.5625,174.438,-0.130859,-0.974121,-0.046875,-0.178162
-176.938,272.25,-73.4375,8.77,4.51,4.49,-2.1875,-24,23.75,-160.75,21.625,173.75,-0.147095,-0.967529,-0.0524902,-0.198792
-196.75,251.75,-70.875,6.56,5.85,4.87,-2.1875,-24,23.75,-158.125,23.4375,173.188,-0.164795,-0.960449,-0.0571289,-0.217041
-215.688,222.688,-67.625,6.56,5.85,4.87,-2.1875,-24,23.75,-158.125,23.4375,173.188,-0.164795,-0.960449,-0.0571289,-0.217041
-234.438,193.5,-71.75,6.49,6.91,4.97,-5.5,-27.25,20.0625,-155.25,24.875,172.625,-0.184143,-0.952942,-0.0613403,-0.232788
-257.062,168.75,-81.5625,7.37,8.21,2.92,-5.5,-27.25,20.0625,-148.625,26.875,171.438,-0.228699,-0.935852,-0.0696411,-0.258911
-278.938,159.312,-91.25,8.3,9.54,1.63,-5.5,-27.25,20.0625,-144.938,27.75,170.812,-0.252747,-0.925537,-0.0741577,-0.272034
-292.125,169.062,-96.5625,9.12,10.37,1.27,-5.5,-27.25,20.0625,-141,28.6875,268,-0.277161,-0.913696,-0.0787354,-0.286682
-300.5,191,-95.4375,9.12,10.37,1.27,-5.5,-27.25,20.0625,-141,28.6875,268,-0.277161,-0.913696,-0.0787354,-0.286682
-306.938,216.5,-88.5625,10.1,11.03,1.51,-6.6875,-31.375,12.375,-136.875,29.6875,269.625,-0.301392,-0.900208,-0.0831909,-0.303223
-308.688,238.875,-77.625,12.75,13.67,4.93,-6.6875,-31.375,12.375,-128.25,31.8125,271.312,-0.348145,-0.868896,-0.090332,-0.340027
-313.25,245.5,-66,12.75,14.45,4.88,-6.6875,-31.375,12.375,-123.75,32.8125,272,-0.37146,-0.851501,-0.0921021,-0.358398
-324,241.875,-54.6875,12.57,14.8,3.55,-6.6875,-31.375,12.375,-119,33.625,272.688,-0.395081,-0.832764,-0.0928345,-0.376587
-337.625,240,-48.25,12.57,14.8,3.55,-6.6875,-31.375,12.375,-119,33.625,272.688,-0.395081,-0.832764,-0.0928345,-0.376587
-345.188,246.062,-50,14.83,13.98,1.31,-6.6875,-33.25,4.5625,-114.062,34.25,273.375,-0.418762,-0.8125,-0.0935059,-0.394653
-339.375,262.688,-49.375,15.94,15.26,3.93,-6.6875,-33.25,4.5625,-103.938,35.125,273.625,-0.461853,-0.767761,-0.0967407,-0.433472
-326.188,288.688,-39.625,17.56,15.92,5.62,-6.6875,-33.25,4.5625,-98.6875,35.5,273.062,-0.480713,-0.742737,-0.0995483,-0.455383
-318.625,321.438,-30.875,22.13,16.66,5.78,-6.6875,-33.25,4.5625,-93.125,35.625,272.25,-0.498291,-0.715393,-0.102966,-0.478821
-319.875,352.5,-23.3125,22.13,16.66,5.78,-6.6875,-33.25,4.5625,-93.125,35.625,272.25,-0.498291,-0.715393,-0.102966,-0.478821
-323.875,356.25,-10.0625,23.74,16.11,4.43,-4.5,-33.6875,-7.1875,-87.5,35.5,271.375,-0.514771,-0.686707,-0.105408,-0.50238
-316.125,331.688,7.125,24.75,15.21,4.43,-4.5,-33.6875,-7.1875,-77.3125,35.0625,269.75,-0.54187,-0.63208,-0.104431,-0.544006
-296.312,292.562,24.625,24.16,15.91,8.67,-4.5,-33.6875,-7.1875,-72.9375,34.75,269,-0.552246,-0.607849,-0.101318,-0.561462
-274.75,253.812,38.1875,23.63,17.39,10.76,-4.5,-33.6875,-7.1875,-68.875,34.5,268.375,-0.561523,-0.585083,-0.0967407,-0.577026
-264.688,222.688,46.0625,23.63,17.39,10.76,-4.5,-33.6875,-7.1875,-68.875,34.5,268.375,-0.561523,-0.585083,-0.0967407,-0.590942
-270.812,196.438,46.8125,23.48,18.44,10.66,-1.5,-30.6875,-15.25,-64.9375,34.125,268,-0.570801,-0.562805,-0.0905151,-0.602905
-284,170.5,40.125,25.92,17.19,0.46,-1.5,-30.6875,-15.25,-57.4375,33.3125,267.875,-0.591003,-0.51947,-0.0737305,-0.612732
-285.188,143.5,30,28.29,15.75,-1.94,-1.5,-30.6875,-15.25,-54.1875,32.875,268.062,-0.600403,-0.500366,-0.0648804,-0.620422
-262.188,115.312,23.625,31.02,14.93,-1.7,-1.5,-30.6875,-15.25,-51.5,32.625,268.125,-0.6073,-0.484863,-0.0563354,-0.626831
-218.688,86.5,33.5,31.02,14.93,-1.7,-1.5,-30.6875,-15.25,-51.5,32.625,268.125,-0.6073,-0.484863,-0.0563354,-0.633606
-176.625,59.8125,69.125,34.2,13.71,1.17,0,-25.75,-24.6875,-49.25,32.75,267.812,-0.610474,-0.4729,-0.0472412,-0.642334
-149.125,41.25,127.625,34.91,13.01,5.43,0,-25.75,-24.6875,-44.6875,34.5625,265.375,-0.603821,-0.454773,-0.0228882,-0.654236
-138.688,36.5625,197.938,34.39,12.8,6.72,0,-25.75,-24.6875,-41.6875,36.0625,263.125,-0.594055,-0.445251,-0.00640869,-0.669922
-147.75,42.9375,273.938,31.39,12.62,6.91,0,-25.75,-24.6875,-37.8125,37.8125,260.188,-0.580444,-0.433777,0.0137329,-0.689026
-170,51.8125,348.062,31.39,12.62,6.91,0,-25.75,-24.6875,-37.8125,37.8125,260.188,-0.580444,-0.433777,0.0137329,-0.71051
-195.562,55.3125,411.438,29.34,12.77,6.9,0.375,-20.6875,-27.75,-33.0625,39.6875,256.812,-0.563293,-0.420166,0.0374146,-0.732666
-218.188,47.125,459.562,26.48,13.27,6.95,0.375,-20.6875,-27.75,-21.125,43.25,249.188,-0.520264,-0.389465,0.0943604,-0.75415
-234,29.625,491.75,28.5,14.05,5.4,0.375,-20.6875,-27.75,-14.1875,44.625,245.125,-0.494934,-0.373108,0.125732,-0.774597
-241.188,18.4375,515.312,29.98,14.6,4.06,0.375,-20.6875,-27.75,-6.5625,45.375,240.812,-0.46637,-0.355591,0.157776,-0.794495
-240.75,18.625,547.125,29.98,14.6,4.06,0.375,-20.6875,-27.75,-6.5625,45.375,240.812,-0.46637,-0.355591,0.157776,-0.794495
-231.562,22.4375,599.688,30.93,15.17,3.08,-3.6875,-15.5,-31.375,1.5,45.4375,235.938,-0.432739,-0.336487,0.190125,-0.814514
-214.125,25.375,671.312,30.05,19.58,5.47,-3.6875,-15.5,-31.375,18.5,42.4375,223.875,-0.344482,-0.292358,0.254944,-0.854919
-195.625,28.125,750.062,30.32,22.08,6.03,-3.6875,-15.5,-31.375,26.5625,39,216.625,-0.289246,-0.265625,0.286743,-0.87384
-183.312,39.5,828.938,30.67,25.24,5.73,-3.6875,-15.5,-31.375,33.75,34.0625,208.562,-0.226807,-0.233582,0.317993,-0.890442
-180.812,64.75,912.562,30.67,25.24,5.73,-3.6875,-15.5,-31.375,33.75,34.0625,208.562,-0.226807,-0.233582,0.317993,-0.890442
-185.688,96.375,1006.06,29.28,32.78,2.2,-9.25,-7.25,-33.875,39.8125,27.4375,199.688,-0.156799,-0.195007,0.348694,-0.903198
-190.125,123.5,1103.94,25.42,38.03,-3.01,-9.25,-7.25,-33.875,48.375,10.125,179.188,0.00610352,-0.0994263,0.404236,-0.909241
-183.562,138,1194.44,20.83,39.28,-4.73,-9.25,-7.25,-33.875,50.5625,0,167.688,0.0965576,-0.0457153,0.424622,-0.899048
-159.125,135.125,1262.94,13.85,39.27,-4.25,-9.25,-7.25,-33.875,51.0625,-10.3125,155.5,0.190369,0.00775146,0.437134,-0.878967
-122.812,101.562,1305.06,13.85,39.27,-4.25,-9.25,-7.25,-33.875,51.0625,-10.3125,155.5,0.190369,0.00775146,0.437134,-0.878967
-76.375,58.875,1309.5,11.08,39.2,-3.29,-8.5,4.875,-35,49.6875,-20.4375,143.062,0.283691,0.0588989,0.440186,-0.849854
-24.5,26.4375,1282.81,5.93,36.34,-1.97,-8.5,4.875,-35,39.9375,-37.875,118.875,0.455444,0.151672,0.417847,-0.771301
27.6875,-13.6875,1236.31,3.47,32.64,-0.06,-8.5,4.875,-35,30.8125,-44.0625,107.688,0.530212,0.191895,0.393433,-0.726135
82.5625,-52.9375,1175.19,2.92,31.4,2.08,-8.5,4.875,-35,19,-47.8125,97.4375,0.596313,0.228394,0.361511,-0.679382
136,-88.6875,1108.88,2.92,31.4,2.08,-8.5,4.875,-35,19,-47.8125,97.4375,0.596313,0.228394,0.361511,-0.679382
183.875,-127.75,1042.44,1.86,29.51,4.43,0.6875,9.875,-32.5625,5.8125,-48.8125,88.0625,0.653809,0.261108,0.32312,-0.632385
225.5,-169.75,968.938,0.91,21.56,11.87,0.6875,9.875,-32.5625,-17.25,-43.25,72.3125,0.743164,0.314636,0.231079,-0.543396
259.812,-215.25,891.562,1.76,18.86,13.98,0.6875,9.875,-32.5625,-25.5,-38.0625,65.9375,0.775757,0.335388,0.179749,-0.503357
282.562,-259.375,811.875,3.77,16.49,14.95,0.6875,9.875,-32.5625,-31.75,-32.125,60.4375,0.80127,0.352112,0.127014,-0.466797
289.562,-294.188,734.812,3.77,16.49,14.95,0.6875,9.875,-32.5625,-31.75,-32.125,60.4375,0.80127,0.352112,0.127014,-0.466797
282.375,-313.75,669.5,8.11,14.76,15,2.6875,-0.0625,-33,-36.5,-26,55.5625,0.820801,0.365234,0.074585,-0.432861
266.625,-330.938,624.25,10.95,14.89,19.68,2.6875,-0.0625,-33,-43.1875,-13.25,47.125,0.847412,0.379944,-0.0303345,-0.36969
242.562,-365.188,599.188,10.39,15.01,21.33,2.6875,-0.0625,-33,-45.5,-6.5625,43.1875,0.856201,0.380554,-0.0839844,-0.339233
212.75,-396.438,586,-1.96,14.32,18.23,2.6875,-0.0625,-33,-47.25,0.125,39.4375,0.862305,0.376892,-0.136963,-0.309143
178.625,-410.938,573.188,-1.96,14.32,18.23,2.6875,-0.0625,-33,-47.25,0.125,39.4375,0.862305,0.376892,-0.136963,-0.309143
138.062,-450.562,540.875,-6.66,12.24,17.16,-8.25,-9.25,-32.1875,-48.5625,6.9375,36.0625,0.865234,0.368286,-0.190247,-0.281982
101.938,-483.062,465,-11.72,8.29,16.39,-8.25,-9.25,-32.1875,-50.75,18.9375,32,0.859131,0.343933,-0.287781,-0.246521
78.25,-458.938,360.562,-10.83,5.29,19.38,-8.25,-9.25,-32.1875,-51.9375,23.375,31.1875,0.852112,0.332886,-0.326172,-0.238159
56.8125,-412.438,258.875,-10.71,4.34,20.63,-8.25,-9.25,-32.1875,-53,26.875,31.0625,0.844421,0.322327,-0.357483,-0.235046
23.375,-363.438,173.938,-10.71,4.34,20.63,-8.25,-9.25,-32.1875,-53,26.875,31.0625,0.844421,0.322327,-0.357483,-0.235046
-22.5,-325.812,105.312,-11.19,4.03,21.73,-21.5,-6.6875,-26.5625,-53.8125,29.5625,31.5625,0.836975,0.310913,-0.382935,-0.237
-77.875,-318.188,43.75,-9.48,6.42,26.64,-21.5,-6.6875,-26.5625,-54.6875,33.4375,35.0625,0.820801,0.280823,-0.4245,-0.259277
-147.25,-333.375,-18.6875,-6.17,7.63,27.3,-21.5,-6.6875,-26.5625,-54.5625,34.8125,38.1875,0.811523,0.259216,-0.441711,-0.28125
-236.625,-353.25,-76.25,-2.76,8.73,26.72,-21.5,-6.6875,-26.5625,-53.75,36,42.1875,0.802063,0.231079,-0.455627,-0.309387
-342.875,-363.25,-112.25,-2.76,8.73,26.72,-21.5,-6.6875,-26.5625,-53.75,36,42.1875,0.802063,0.231079,-0.455627,-0.309387
-451.375,-361.25,-116.75,-0.05,11.61,24.96,-28.1875,-3.375,-19.25,-51.9375,37.1875,46.5625,0.792908,0.195312,-0.465393,-0.341309
-552.188,-353.625,-95.9375,-0.77,14.96,22.67,-28.1875,-3.375,-19.25,-45.5625,40.4375,55.5625,0.774292,0.101562,-0.472656,-0.408325
-627.688,-354.5,-73.25,-0.49,17.05,22.41,-28.1875,-3.375,-19.25,-41.5,42.6875,60.125,0.76178,0.0462646,-0.471985,-0.441345
-681.625,-372.062,-55.0625,-1.02,21.34,18.65,-28.1875,-3.375,-19.25,-37.125,45.4375,64.75,0.745483,-0.013916,-0.469238,-0.473145
-727.812,-399.375,-37.25,-1.02,21.34,18.65,-28.1875,-3.375,-19.25,-37.125,45.4375,64.75,0.745483,-0.013916,-0.469238,-0.473145
-764.562,-431.438,-20.875,-1.11,23.02,16.29,-31.5,-1.5,-9.875,-32.4375,48.75,69.5,0.724609,-0.0782471,-0.4646,-0.50293
-786.25,-462.625,-12.875,-1.68,23.9,11.69,-31.5,-1.5,-9.875,-23.0625,56.8125,79.3125,0.667297,-0.212891,-0.4505,-0.553528
-793.5,-492,-10.9375,-2.96,21.88,9.01,-31.5,-1.5,-9.875,-18.625,61.4375,84.4375,0.630859,-0.280212,-0.441895,-0.572937
-786.25,-520.5,-11.25,-2.57,20.49,9.39,-31.5,-1.5,-9.875,-14.5,66.375,89.75,0.590088,-0.34552,-0.432556,-0.587646
-765.75,-539.125,-13.4375,-2.57,20.49,9.39,-31.5,-1.5,-9.875,-14.5,66.375,89.75,0.590088,-0.34552,-0.432556,-0.587646
-740.25,-546.875,-10.5625,-1.35,20.85,11.68,-31.875,-0.0625,2,-10.625,71.5,95.0625,0.546387,-0.407959,-0.422058,-0.597412
-722.375,-544.812,5.0625,0.73,19.29,10.03,-31.875,-0.0625,2,1.3125,81.9375,105.938,0.454651,-0.524841,-0.393127,-0.602722
-714.75,-535.312,36.375,1.8,18.06,9.49,-31.875,-0.0625,2,1.5,86.5625,111.312,0.40918,-0.578491,-0.372742,-0.599182
-702.312,-508.375,71.5625,0.83,16.93,9.28,-31.875,-0.0625,2,177.375,86.875,116.688,0.365112,-0.62738,-0.348694,-0.592834
-683.188,-469.188,98.75,-0.87,16.93,9.28,-31.875,-0.0625,2,177.375,86.875,116.688,0.365112,-0.62738,-0.348694,-0.592834
-665.688,-430,107.625,-4.73,15.22,10.31,-27.875,-5.5625,15.5,153.062,83,122.312,0.321838,-0.671082,-0.322144,-0.585022
-656.75,-393.312,92,-5.41,14.4,10.49,-27.875,-5.5625,15.5,170.688,75.5625,135.688,0.231445,-0.742615,-0.266724,-0.569031
-663.562,-364,58.5,-5.99,14.25,10.2,-27.875,-5.5625,15.5,177.875,72.3125,144.188,0.181519,-0.770874,-0.239136,-0.561829
-680.375,-335.938,15.1875,-5.53,16.31,9.62,-27.875,-5.5625,15.5,-174.625,69.3125,154.062,0.127747,-0.794067,-0.212158,-0.555115
-702.688,-310.812,-31.375,-4.65,16.31,9.62,-27.875,-5.5625,15.5,-174.625,69.3125,154.062,0.127747,-0.794067,-0.212158,-0.555115
-729.375,-286.938,-77.5,-4.78,19.16,9.09,-22.75,-14.875,20,-166.875,66.4375,165.438,0.0698853,-0.812195,-0.185852,-0.548584
-761.5,-282.188,-121.875,-4.81,24.52,2.13,-22.75,-14.875,20,-150.688,60.1875,192.812,-0.0596924,-0.835571,-0.135071,-0.529114
-799.5,-300.062,-165.812,-6.26,26.88,-9.22,-22.75,-14.875,20,-142.5,56.5,208.562,-0.131042,-0.840393,-0.112244,-0.513794
-823.188,-312.812,-224.75,-6.65,26.21,-15.52,-22.75,-14.875,20,-134.375,52.3125,224.875,-0.204285,-0.8396,-0.0943604,-0.494385
-815.75,-314.25,-299.375,-3.13,26.21,-15.52,-22.75,-14.875,20,-134.375,52.3125,224.875,-0.204285,-0.8396,-0.0943604,-0.494385
-777.062,-293.125,-366.312,3.43,23.42,-20.3,-16.5,-27.375,13.5,-126.688,47.8125,240.625,-0.276184,-0.833069,-0.0825806,-0.472107
-699.438,-207.75,-400.75,13.74,17.08,-23.48,-16.5,-27.375,13.5,-112.562,40,263.938,-0.397461,-0.800415,-0.0797729,-0.441589
-600.125,-37.4375,-375.938,32.07,14.42,-27.41,-16.5,-27.375,13.5,-105.812,37.9375,269.188,-0.439941,-0.77478,-0.0859375,-0.445923
-495.25,164.5,-284.75,36.62,13.98,-27.88,-16.5,-27.375,13.5,-99.5,37.25,270.188,-0.466675,-0.746338,-0.0944214,-0.465088
-368.812,342.812,-148.5,37.68,13.98,-27.88,-16.5,-27.375,13.5,-99.5,37.25,270.188,-0.466675,-0.746338,-0.0944214,-0.465088
-223.875,437.438,-7.875,34.68,16.33,-19.77,-8.6875,-33.25,-3.25,-94.125,37.6875,268,-0.477234,-0.719604,-0.103271,-0.493713
-98.3125,427.062,114,30.28,15.12,-12.46,-8.6875,-33.25,-3.25,-87.1875,40.8125,259.938,-0.46283,-0.685181,-0.109924,-0.551636
-9.75,322.688,201.25,27.07,15.16,-8.02,-8.6875,-33.25,-3.25,-86,43.0625,256,-0.446472,-0.680725,-0.10553,-0.571045
54.25,184,243.062,23,13.38,-2.64,-8.6875,-33.25,-3.25,-86.125,45.3125,252.562,-0.428345,-0.683044,-0.0993652,-0.58313
101.438,71.3125,238.938,18.66,13.38,-2.64,-8.6875,-33.25,-3.25,-86.125,45.3125,252.562,-0.428345,-0.683044,-0.0993652,-0.58313
142.688,-54.4375,172.5,18.74,12.04,-0.85,-5,-32.875,-10.1875,-88,47,250.312,-0.412048,-0.692261,-0.0944824,-0.5849
142.688,-54.4375,172.5,19.68,10.07,2.25,-5,-32.875,-10.1875,-92.1875,50.1875,245.938,-0.380249,-0.710693,-0.0845337,-0.585815
137.688,-79.25,154.188,21.66,9.46,2.89,-5,-32.875,-10.1875,-94.3125,51.6875,244,-0.365845,-0.719421,-0.0779419,-0.585266
114.875,-80.0625,161.875,26.77,9.68,2.36,-5,-32.875,-10.1875,-96.125,53.5625,241.75,-0.351379,-0.726013,-0.0678101,-0.587219
79.8125,-59.8125,201,28.79,9.68,2.36,-5,-32.875,-10.1875,-96.125,53.5625,241.75,-0.351379,-0.726013,-0.0678101,-0.587219
8.5625,-28.375,363.938,30.27,10.29,2.39,-9.5,-33.25,-6.5625,-97.1875,57.0625,238.312,-0.332825,-0.729431,-0.0450439,-0.595947
8.5625,-28.375,363.938,30.95,11.24,2.84,-9.5,-33.25,-6.5625,-100.375,64.875,230.688,-0.291077,-0.733643,0.00848389,-0.613953
-18.5,-33.75,467.375,28.84,13.45,3.56,-9.5,-33.25,-6.5625,-104.75,70.9375,225.125,-0.259766,-0.734131,0.0526733,-0.625183
-46.4375,-61.4375,650.438,26.69,13.75,5.03,-9.5,-33.25,-6.5625,-115.188,77.1875,218.938,-0.224609,-0.732727,0.101562,-0.634338
-54.8125,-82.5,715.688,23.94,13.75,5.03,-9.5,-33.25,-6.5625,-115.188,77.1875,218.938,-0.224609,-0.732727,0.101562,-0.634338
-72.4375,-98,764.938,20.84,14.37,9.21,-15.6875,-29.5,-6.1875,-145.625,82.375,212.5,-0.186829,-0.728455,0.154297,-0.640747
-72.4375,-98,764.938,19.5,15.36,11.34,-15.6875,-29.5,-6.1875,127.312,76.25,199.188,-0.109253,-0.707886,0.266052,-0.645081
-143.562,-94.3125,843.125,17.45,15.52,11.5,-15.6875,-29.5,-6.1875,117.25,68.625,192.5,-0.0703735,-0.689819,0.328064,-0.641541
-182.938,-94.3125,871.062,14.91,15.03,10.34,-15.6875,-29.5,-6.1875,113.438,60.5,185.812,-0.0324707,-0.667297,0.390625,-0.633301
-217.312,-96.4375,882.75,8.39,15.03,10.34,-15.6875,-29.5,-6.1875,113.438,60.5,185.812,-0.0324707,-0.667297,0.390625,-0.633301
-247.812,-95,870.938,5.36,14.49,9.86,-29,-15.6875,-6.6875,112.188,52.375,179.375,0.0032959,-0.641052,0.451904,-0.6203
-274.438,-86,838.688,3.25,13.52,8.78,-29,-15.6875,-6.6875,113.062,37.25,167.562,0.0632324,-0.580688,0.564636,-0.583069
-297.438,-67.875,790.812,0.46,10.71,7.42,-29,-15.6875,-6.6875,114.562,30.6875,162.75,0.0849609,-0.549133,0.614197,-0.560364
-321.562,-46.0625,720.188,-3.65,8.95,6.09,-29,-15.6875,-6.6875,116.562,25,158.625,0.100891,-0.518677,0.658691,-0.535645
-341.188,-29.8125,642.625,-4.96,8.95,6.09,-29,-15.6875,-6.6875,116.562,25,158.625,0.100891,-0.518677,0.658691,-0.535645
-355.875,-25.125,563.562,-6.27,7.51,4.68,-31.1875,7.1875,-5.875,119.062,20.0625,155.125,0.112,-0.490723,0.698181,-0.509155
-362.938,-28.875,486.188,-6.83,5.07,1.67,-31.1875,7.1875,-5.875,124.875,12.3125,149.375,0.123901,-0.444824,0.762512,-0.453186
-359.562,-30.4375,414.375,-6.59,4.41,1.17,-31.1875,7.1875,-5.875,127.875,9.4375,147.062,0.125671,-0.42627,0.788269,-0.425537
-351.375,-24.4375,354,-4.45,4.16,0.71,-31.1875,7.1875,-5.875,130.938,7.0625,145.188,0.125061,-0.408936,0.811157,-0.398926
-341.25,-7,313.938,-2.68,4.16,0.71,-31.1875,7.1875,-5.875,130.938,7.0625,145.188,0.125061,-0.408936,0.811157,-0.398926
-333.5,8.625,289.812,-1.39,4.66,-0.7,-21.875,24.25,1.75,133.938,5.0625,143.562,0.12262,-0.392029,0.831909,-0.373047
-323.75,17.9375,273.625,-1.49,4.93,-2.15,-21.875,24.25,1.75,139.812,1.8125,315,0.115723,-0.359131,0.867737,-0.323608
-306.312,18,258.375,-1.85,5.52,-5.14,-21.875,24.25,1.75,142.5,0.375,317.375,0.112976,-0.343811,0.882324,-0.300842
-280.75,9.875,240.25,-2.26,5.86,-7.13,-21.875,24.25,1.75,144.875,-0.8125,319.5,0.111328,-0.329773,0.894592,-0.280334
-245.938,0,217.938,-2.64,5.86,-7.13,-21.875,24.25,1.75,144.875,-0.8125,319.5,0.111328,-0.329773,0.894592,-0.280334
-202.25,-8.9375,192.062,-2.86,5.74,-7.9,-15,28,8.75,146.875,-1.875,321.312,0.110901,-0.317322,0.904358,-0.262878
-153.062,-23.3125,164.125,-3,6.06,-6.92,-15,28,8.75,149.5,-3.9375,323.938,0.115051,-0.298035,0.917114,-0.238464
-107.188,-36.3125,135.125,-3.17,7.96,-3.8,-15,28,8.75,150.25,-4.8125,324.875,0.11853,-0.291321,0.920837,-0.230591
-74.625,-41.6875,106.188,-2.45,8.72,-3.73,-15,28,8.75,150.812,-5.5,325.5,0.121765,-0.286377,0.923401,-0.224609
-54.0625,-38.75,80.4375,-1.6,8.72,-3.73,-15,28,8.75,150.812,-5.5,325.5,0.121765,-0.286377,0.923401,-0.224609
-34.125,-33.8125,61.9375,-0.71,9.09,-4.73,-9.5,27.5625,15.25,151.188,-6.0625,326,0.124756,-0.282532,0.925232,-0.22052
-4.5,-32.75,50.125,-0.21,9.32,-6.26,-9.5,27.5625,15.25,150.938,-7.0625,326.688,0.132812,-0.276611,0.925842,-0.22052
38.4375,-39,37.8125,-1.06,9,-8.39,-9.5,27.5625,15.25,150.062,-7.6875,326.812,0.139648,-0.275146,0.924011,-0.22583
87.875,-56.6875,19.4375,-1.53,8.52,-8.7,-9.5,27.5625,15.25,148.625,-8.3125,326.625,0.148987,-0.275513,0.920166,-0.234985
139.812,-79.9375,-7.0625,-1.85,8.52,-8.7,-9.5,27.5625,15.25,148.625,-8.3125,326.625,0.148987,-0.275513,0.920166,-0.234985
197.75,-105.688,-38.0625,-1.26,8.29,-9.59,-8,27.1875,17.6875,146.562,-8.9375,326.125,0.161011,-0.278015,0.913818,-0.248291
258.25,-132.125,-69.125,-0.19,8.6,-10.63,-8,27.1875,17.6875,140.5,-10.25,324.125,0.192871,-0.288513,0.892456,-0.288208
321.438,-152.938,-97.0625,0.68,8.71,-9.91,-8,27.1875,17.6875,136.375,-10.6875,322.75,0.212219,-0.295288,0.87677,-0.314758
384.75,-172.562,-120,1.33,7.68,-5.28,-8,27.1875,17.6875,131.688,-11.0625,111.75,0.233521,-0.302124,0.857544,-0.344604
439.5,-191,-133.75,3.41,7.68,-5.28,-8,27.1875,17.6875,131.688,-11.0625,111.75,0.233521,-0.302124,0.857544,-0.344604
483.438,-202.375,-136.375,4.24,6.8,-3.39,-6.75,29.1875,13.25,126.562,-11.25,111.5,0.256287,-0.308044,0.835144,-0.37677
518.5,-220.812,-127.375,4.78,6.02,-1.77,-6.75,29.1875,13.25,115.188,-11.625,110.188,0.308594,-0.31543,0.780579,-0.442688
548.125,-254.625,-111.062,5.36,4.9,-0.78,-6.75,29.1875,13.25,109.062,-11.875,108.875,0.339111,-0.317139,0.747925,-0.474365
573,-292.5,-93.875,5.87,4.72,2.91,-6.75,29.1875,13.25,102.688,-12,107.188,0.371826,-0.317688,0.711731,-0.504272
588.875,-325.938,-76.875,6.52,4.72,2.91,-6.75,29.1875,13.25,102.688,-12,107.188,0.371826,-0.317688,0.711731,-0.504272
587.5,-350.125,-52.5,7.3,3.72,10.24,-8.25,32.875,2.5625,96.25,-12.0625,105.188,0.405701,-0.316772,0.673218,-0.530945
566.75,-343.625,-17.0625,8.04,-2.69,22.2,-8.25,32.875,2.5625,84.3125,-12.25,101.25,0.469421,-0.305359,0.598694,-0.572632
531.875,-293.688,27.4375,7.79,-4.66,22.35,-8.25,32.875,2.5625,79.0625,-12.6875,99.5,0.49707,-0.292664,0.567566,-0.587463
487.688,-229.625,82.6875,8.27,-5.62,22.89,-8.25,32.875,2.5625,74.4375,-13.8125,97.4375,0.52356,-0.275574,0.542236,-0.596558
429.875,-177.125,157.5,9,-5.62,22.89,-8.25,32.875,2.5625,74.4375,-13.8125,97.4375,0.52356,-0.275574,0.542236,-0.596558
359.062,-148,252.75,8.48,-4.01,18.45,-10.0625,31.6875,-10,70.375,-15.6875,94.625,0.551025,-0.255432,0.523071,-0.597961
299.75,-166.25,355.438,5.58,-2.54,14.91,-10.0625,31.6875,-10,62.625,-21.25,85.9375,0.617981,-0.211853,0.491211,-0.576111
277.688,-211.5,437.062,1.94,1.16,12.59,-10.0625,31.6875,-10,58,-24.1875,80.8125,0.655579,-0.187744,0.472717,-0.558105
292.438,-235,482.688,-1.66,4.07,19.55,-10.0625,31.6875,-10,52.75,-26.875,75.6875,0.692688,-0.161011,0.451965,-0.538513
318.438,-235.875,501.562,-5.84,4.07,19.55,-10.0625,31.6875,-10,52.75,-26.875,75.6875,0.692688,-0.161011,0.451965,-0.538513
327.188,-212.375,513.25,-6.32,3.9,23.94,-8.6875,28.6875,-18.75,47,-29.375,70.8125,0.727478,-0.131714,0.430969,-0.517334
306.875,-148.188,532.938,-6.99,3.33,24.68,-8.6875,28.6875,-18.75,35.5625,-34.8125,61.125,0.786011,-0.0661621,0.402588,-0.464478
258.562,-73.5625,572.625,-6.77,9.67,18.37,-8.6875,28.6875,-18.75,29.8125,-37.9375,55.6875,0.811096,-0.0322876,0.396484,-0.428772
198.562,-17.625,628.25,-6.49,12.69,14.9,-8.6875,28.6875,-18.75,23.5,-41,49.625,0.834656,0.0012207,0.392578,-0.38623
150.812,5.5,684.5,-6.45,12.69,14.9,-8.6875,28.6875,-18.75,23.5,-41,49.625,0.834656,0.0012207,0.392578,-0.38623
127.562,-8.125,729.812,-7.68,15.84,12.04,-1.6875,26.0625,-24.5,16.25,-43.3125,43.0625,0.857056,0.0340576,0.387024,-0.338379
124.875,-40.9375,736.875,-12.87,20.11,10.48,-1.6875,26.0625,-24.5,0.0625,-44.125,29.9375,0.895203,0.0964355,0.36322,-0.239502
133.062,-86.875,720.75,-12.32,23.05,8.49,-1.6875,26.0625,-24.5,-7.6875,-42.375,23.75,0.910522,0.126709,0.343811,-0.19165
153.312,-131.375,704.25,-13.23,23.42,8.73,-1.6875,26.0625,-24.5,-14.8125,-39.625,18,0.922241,0.157776,0.321106,-0.146545
185.125,-154.75,674.312,-13.95,23.42,8.73,-1.6875,26.0625,-24.5,-14.8125,-39.625,18,0.922241,0.157776,0.321106,-0.146545
224.25,-156.5,630.188,-15.68,22.28,8.92,9,19.75,-26.5625,-21.125,-36.3125,12.9375,0.929749,0.190063,0.297241,-0.105469
261.5,-147.75,572.625,-15.24,19,11.88,9,19.75,-26.5625,-31.625,-29.0625,4.6875,0.932861,0.256165,0.250244,-0.0385132
282.625,-150.625,509.688,-14.48,17.62,13.77,9,19.75,-26.5625,-35.625,-25.25,1.6875,0.931091,0.286438,0.225342,-0.0137939
278.438,-181.062,437.5,-12.82,15.48,15.01,9,19.75,-26.5625,-38.6875,-21.3125,359.5,0.929138,0.312561,0.197327,0.00384521
252.25,-239.688,359.5,-7.48,15.48,15.01,9,19.75,-26.5625,-38.6875,-21.3125,359.5,0.929138,0.312561,0.197327,0.00384521
