Gyro_x,Gyro_y,Gyro_z,Acc_x,Acc_y,Acc_z,Mag_x,Mag_y,Mag_z,Euler_x,Euler_y,Euler_z,Quat_0,Quat_1,Quat_2,Quat_3
0.1875,0.25,0.0625,-0.33,0.54,9.88,-1.0625,17.6875,-24.5,-2.75,-2.3125,0.4375,0.999512,0.0245361,0.0203857,-0.00421143
-0.0625,0.375,-0.375,-0.29,0.52,9.83,-1.0625,17.6875,-24.5,-2.75,-2.3125,0.4375,0.999512,0.0245361,0.0203857,-0.00421143
-0.375,0.375,-0.25,-0.24,0.42,9.79,-1.0625,17.6875,-24.5,-2.75,-2.3125,0.4375,0.999512,0.0245361,0.0203857,-0.00421143
-0.3125,0.125,-0.25,-0.27,0.4,9.85,-0.375,19.0625,-25.25,-2.75,-2.3125,0.4375,0.999512,0.0245361,0.0203857,-0.00421143
-0.25,0.0625,-0.125,-0.28,0.4,9.8,-0.375,19.0625,-25.25,-2.75,-2.3125,0.4375,0.999512,0.0245361,0.0203857,-0.00421143
-0.1875,-0.0625,0.125,-0.29,0.44,9.79,-0.375,19.0625,-25.25,-2.75,-2.3125,0.4375,0.999512,0.0245361,0.0203857,-0.00421143
0.1875,-0.0625,0.3125,-0.3,0.47,9.83,-0.375,19.0625,-25.25,-2.75,-2.3125,0.4375,0.999512,0.0245361,0.0203857,-0.00421143
0.25,-0.125,0.1875,-0.32,0.51,9.84,-0.375,19.0625,-25.25,-2.75,-2.3125,0.4375,0.999512,0.0245361,0.0203857,-0.00421143
0.3125,-0.1875,0,-0.29,0.51,9.85,0,18,-24.5,-2.75,-2.3125,0.4375,0.999512,0.0245361,0.0203857,-0.00421143
0.125,-0.4375,-0.0625,-0.27,0.5,9.83,0,18,-24.5,-2.75,-2.3125,0.4375,0.999512,0.0245361,0.0203857,-0.00421143
-0.1875,-0.5,-0.3125,-0.22,0.45,9.82,0,18,-24.5,-2.75,-2.3125,0.4375,0.999512,0.0245361,0.0203857,-0.00421143
-0.125,-0.625,-0.0625,-0.24,0.42,9.83,0,18,-24.5,-2.75,-2.3125,0.4375,0.999512,0.0245361,0.0203857,-0.00421143
-0.1875,-0.375,-0.0625,-0.23,0.45,9.81,0,18,-24.5,-2.75,-2.3125,0.4375,0.999512,0.0245361,0.0203857,-0.00421143
0.25,0.3125,0.125,-0.27,0.45,9.84,0,18,-23.25,-2.75,-2.3125,0.4375,0.999512,0.0245361,0.0203857,-0.00421143
0.25,0.3125,0.125,-0.28,0.49,9.85,0,18,-23.25,-2.75,-2.3125,0.4375,0.999512,0.0245361,0.0203857,-0.00421143
0.25,0.5,0.1875,-0.3,0.51,9.84,0,18,-23.25,-2.75,-2.3125,0.4375,0.999512,0.0245361,0.0203857,-0.00421143
0.125,0.5625,0.0625,-0.33,0.5,9.84,0,18,-23.25,-2.75,-2.3125,0.4375,0.999512,0.0245361,0.0203857,-0.00421143
-0.0625,0.375,-0.125,-0.29,0.49,9.83,0,18,-23.25,-2.75,-2.3125,0.4375,0.999512,0.0245361,0.0203857,-0.00421143
-0.375,0.0625,-0.3125,-0.28,0.46,9.82,0,18,-23.6875,-2.75,-2.3125,0.4375,0.999512,0.0245361,0.0203857,-0.00421143
-0.375,0.0625,-0.3125,-0.26,0.44,9.83,0,18,-23.6875,-2.75,-2.3125,0.4375,0.999512,0.0245361,0.0203857,-0.00421143
0.0625,-0.3125,0.1875,-0.26,0.43,9.79,0,18,-23.6875,-2.75,-2.3125,0.4375,0.999512,0.0245361,0.0203857,-0.00421143
0.125,-0.1875,0.0625,-0.27,0.42,9.81,0,18,-23.6875,-2.75,-2.3125,0.4375,0.999512,0.0245361,0.0203857,-0.00421143
0.3125,-0.0625,0.25,-0.28,0.48,9.84,0,18,-23.6875,-2.75,-2.3125,0.4375,0.999512,0.0245361,0.0203857,-0.00421143
0.3125,-0.375,0.125,-0.29,0.53,9.84,-0.375,18.375,-23.6875,-2.75,-2.3125,0.4375,0.999512,0.0245361,0.0203857,-0.00421143
0.125,-0.375,-0.125,-0.28,0.5,9.86,-0.375,18.375,-23.6875,-2.75,-2.3125,0.4375,0.999512,0.0245361,0.0203857,-0.00421143
-0.125,-0.25,-0.125,-0.27,0.5,9.86,-0.375,18.375,-23.6875,-2.75,-2.3125,0.4375,0.999512,0.0245361,0.0203857,-0.00421143
-0.25,0.125,-0.1875,-0.27,0.48,9.85,-0.375,18.375,-23.6875,-2.75,-2.3125,0.4375,0.999512,0.0245361,0.0203857,-0.00421143
-0.3125,0.1875,-0.0625,-0.26,0.43,9.85,-0.375,18.375,-23.6875,-2.75,-2.3125,0.4375,0.999512,0.0245361,0.0203857,-0.00421143
-0.0625,0.5,-0.0625,-0.26,0.46,9.83,0.375,18.75,-23.6875,-2.75,-2.3125,0.4375,0.999512,0.0245361,0.0203857,-0.00421143
-0.0625,0.625,0.0625,-0.26,0.44,9.81,0.375,18.75,-23.6875,-2.75,-2.3125,0.4375,0.999512,0.0245361,0.0203857,-0.00421143
0.0625,0.4375,0.0625,-0.3,0.48,9.83,0.375,18.75,-23.6875,-2.75,-2.3125,0.4375,0.999512,0.0245361,0.0203857,-0.00421143
0.25,0.375,0.125,-0.33,0.5,9.81,0.375,18.75,-23.6875,-2.75,-2.3125,0.4375,0.999512,0.0245361,0.0203857,-0.00421143
0.125,0.0625,-0.125,-0.32,0.45,9.83,0.375,18.75,-23.6875,-2.75,-2.3125,0.4375,0.999512,0.0245361,0.0203857,-0.00421143
0,-0.25,-0.125,-0.3,0.49,9.83,0.375,18,-23.6875,-2.75,-2.3125,0.4375,0.999512,0.0245361,0.0203857,-0.00421143
-0.125,-0.3125,-0.1875,-0.27,0.45,9.83,0.375,18,-23.6875,-2.75,-2.3125,0.4375,0.999512,0.0245361,0.0203857,-0.00421143
-0.1875,-0.5,-0.0625,-0.27,0.44,9.8,0.375,18,-23.6875,-2.75,-2.3125,0.4375,0.999512,0.0245361,0.0203857,-0.00421143
-0.0625,-0.25,0.125,-0.26,0.43,9.8,0.375,18,-23.6875,-2.75,-2.3125,0.4375,0.999512,0.0245361,0.0203857,-0.00421143
0.125,0,0,-0.26,0.46,9.83,0.375,18,-23.6875,-2.75,-2.3125,0.4375,0.999512,0.0245361,0.0203857,-0.00421143
0.125,0.1875,0.125,-0.28,0.47,9.83,-0.375,18.375,-24.5,-2.75,-2.3125,0.4375,0.999512,0.0245361,0.0203857,-0.00421143
0.1875,0.3125,0,-0.29,0.49,9.86,-0.375,18.375,-24.5,-2.75,-2.3125,0.4375,0.999512,0.0245361,0.0203857,-0.00421143
0.125,0.1875,0,-0.28,0.5,9.82,-0.375,18.375,-24.5,-2.75,-2.3125,0.4375,0.999512,0.0245361,0.0203857,-0.00421143
0,0.125,-0.125,-0.3,0.48,9.83,-0.375,18.375,-24.5,-2.75,-2.3125,0.4375,0.999512,0.0245361,0.0203857,-0.00421143
-0.1875,0.1875,-0.1875,-0.28,0.46,9.85,-0.375,18.375,-24.5,-2.75,-2.3125,0.4375,0.999512,0.0245361,0.0203857,-0.00421143
-0.1875,0,0,-0.26,0.42,9.83,0,17.6875,-24.0625,-2.75,-2.3125,0.4375,0.999512,0.0245361,0.0203857,-0.00421143
-0.125,0,0.0625,-0.28,0.42,9.81,0,17.6875,-24.0625,-2.75,-2.3125,0.4375,0.999512,0.0245361,0.0203857,-0.00421143
0,0.0625,0.0625,-0.28,0.46,9.8,0,17.6875,-24.0625,-2.75,-2.3125,0.4375,0.999512,0.0245361,0.0203857,-0.00421143
0.125,-0.0625,0.1875,-0.28,0.47,9.79,0,17.6875,-24.0625,-2.75,-2.3125,0.4375,0.999512,0.0245361,0.0203857,-0.00421143
0.1875,-0.3125,-0.75,-0.57,0.66,9.96,0,17.6875,-24.0625,-2.75,-2.3125,0.4375,0.999512,0.0245361,0.0203857,-0.00427246
-0.25,-0.3125,-0.75,-0.34,0.7,9.82,0.375,17.6875,-23.25,-2.75,-2.3125,0.5,0.999512,0.024353,0.0204468,-0.00469971
-1.625,0.25,-4.8125,-0.07,0.54,9.98,0.375,17.6875,-23.25,-2.75,-2.3125,0.5625,0.999512,0.0241699,0.0205688,-0.00531006
-2,3.4375,-7.0625,-0.08,0.51,10.03,0.375,17.6875,-23.25,-2.6875,-2.375,0.625,0.999451,0.0239868,0.020813,-0.00585938
-2.75,5.1875,-6.375,-0.06,0.4,9.84,0.375,17.6875,-23.25,-2.6875,-2.4375,0.6875,0.999451,0.0236816,0.0212402,-0.00640869
-3.25,6.6875,-5.1875,-0.23,0.28,9.81,0.375,17.6875,-23.25,-2.625,-2.5,0.75,0.999451,0.0234375,0.0218506,-0.00683594
-2.75,6.6875,-5.1875,-0.23,0.35,9.81,0,17.6875,-24.5,-2.625,-2.5625,0.8125,0.999451,0.0232544,0.0223999,-0.00714111
-2.375,6.6875,-4.25,-0.46,0.34,9.67,0,17.6875,-24.5,-2.625,-2.625,0.8125,0.999451,0.0230713,0.0228882,-0.00750732
-1.625,3.5,-3.875,-0.49,0.33,9.59,0,17.6875,-24.5,-2.5625,-2.625,0.875,0.999451,0.0230713,0.0231934,-0.00787354
-0.5,0.4375,-2.9375,-0.31,0.24,9.65,0,17.6875,-24.5,-2.5625,-2.625,0.875,0.999451,0.0230713,0.0231934,-0.00811768
0.375,-2.4375,-0.6875,-0.25,0.24,9.64,0,17.6875,-24.5,-2.625,-2.625,0.875,0.999451,0.0231323,0.0230103,-0.00817871
1.25,-2.4375,-0.6875,-0.25,0.28,9.73,0.6875,17.6875,-23.6875,-2.625,-2.5625,0.875,0.999451,0.0232544,0.022522,-0.00805664
1.875,-4.375,1.3125,-0.22,0.44,9.9,0.6875,17.6875,-23.6875,-2.625,-2.5,0.875,0.999451,0.0233765,0.0220337,-0.00787354
2.25,-4.9375,2.3125,-0.29,0.55,9.93,0.6875,17.6875,-23.6875,-2.625,-2.5,0.875,0.999451,0.0235596,0.0216675,-0.00769043
1.8125,-2.5,1.5,-0.27,0.57,9.93,0.6875,17.6875,-23.6875,-2.6875,-2.4375,0.8125,0.999451,0.0236816,0.0214233,-0.00756836
1.375,-0.8125,1.1875,-0.17,0.55,9.95,0.6875,17.6875,-23.6875,-2.6875,-2.4375,0.8125,0.999451,0.0238037,0.0213013,-0.00744629
0.875,-0.8125,1.1875,-0.17,0.55,9.83,0,18.75,-23.25,-2.6875,-2.4375,0.8125,0.999451,0.0238037,0.0212402,-0.00726318
0.25,-0.375,2.1875,-0.11,0.39,9.86,0,18.75,-23.25,-2.6875,-2.4375,0.75,0.999451,0.0238037,0.0211792,-0.00695801
0.4375,-0.25,3.9375,-0.38,0.42,9.76,0,18.75,-23.25,-2.6875,-2.4375,0.75,0.999451,0.0238037,0.0211182,-0.0065918
0.375,-0.75,2.8125,-0.55,0.54,9.75,0,18.75,-23.25,-2.6875,-2.375,0.6875,0.999451,0.0238647,0.0210571,-0.00634766
0.875,-0.6875,0.3125,-0.69,0.68,9.99,0,18.75,-23.25,-2.6875,-2.375,0.6875,0.999451,0.0239868,0.0209961,-0.00634766
1.4375,-0.6875,0.3125,-0.69,0.68,9.99,0,17.6875,-24.0625,-2.6875,-2.375,0.75,0.999451,0.0240479,0.0209961,-0.00665283
0.6875,0.5,-3.5,-0.66,0.77,10.06,0,17.6875,-24.0625,-2.6875,-2.4375,0.8125,0.999451,0.0239258,0.0212402,-0.00726318
-0.875,4.6875,-8.5625,0,0.49,10.05,0,17.6875,-24.0625,-2.6875,-2.4375,0.875,0.999451,0.0238037,0.0216064,-0.00799561
-1.5625,6.8125,-7.1875,0.06,0.34,9.98,0,17.6875,-24.0625,-2.625,-2.5625,0.9375,0.999451,0.0235596,0.0222168,-0.00860596
-2.8125,7.9375,-4.6875,-0.03,0.25,9.74,0,17.6875,-24.0625,-2.625,-2.625,1,0.999451,0.0232544,0.0228882,-0.00897217
-3.1875,7.9375,-4.6875,-0.03,0.25,9.74,0,17.6875,-23.25,-2.5625,-2.6875,1,0.99939,0.0230713,0.0234985,-0.00909424
-2.25,7,-1.6875,-0.14,0.14,9.59,-0.375,18,-23.25,-2.5625,-2.75,1,0.99939,0.0230103,0.0238647,-0.00897217
-0.8125,4,2.625,-0.66,0.29,9.57,-0.375,18,-23.25,-2.5625,-2.75,1,0.99939,0.0230103,0.0238647,-0.00878906
0.5625,0.125,2.375,-0.72,0.37,9.68,-0.375,18,-23.25,-2.625,-2.6875,0.9375,0.99939,0.0231934,0.0235596,-0.00854492
1.875,-2.9375,1.0625,-0.4,0.51,9.85,-0.375,18,-23.25,-2.625,-2.625,0.9375,0.999451,0.0233154,0.0231934,-0.00848389
1.75,-4.5625,1.0625,-0.4,0.51,9.85,-0.375,18,-23.25,-2.625,-2.625,0.9375,0.999451,0.0234375,0.0227661,-0.00848389
1.4375,-4.8125,0.1875,-0.11,0.41,9.9,-0.75,17.25,-24.0625,-2.625,-2.5625,0.9375,0.999451,0.0235596,0.0224609,-0.00836182
0.9375,-3.75,4.4375,0.16,0.26,9.83,-0.75,17.25,-24.0625,-2.625,-2.5625,0.875,0.999451,0.0236206,0.0222168,-0.00799561
0.75,-2.375,7.5,-0.15,0.3,9.76,-0.75,17.25,-24.0625,-2.6875,-2.5,0.8125,0.999451,0.0237427,0.0220947,-0.00738525
1.3125,-1.375,9.25,-0.44,0.4,9.79,-0.75,17.25,-24.0625,-2.6875,-2.5,0.75,0.999451,0.0239258,0.0220337,-0.0065918
2.1875,-1,9.25,-0.44,0.4,9.79,-0.75,18,-23.6875,-2.75,-2.5,0.625,0.999451,0.0241699,0.0218506,-0.00592041
2.5,-1.8125,8.4375,-0.66,0.52,9.83,0.375,18,-23.6875,-2.75,-2.4375,0.5625,0.999451,0.0244141,0.0216064,-0.00543213
2.4375,-2.625,3.125,-0.46,0.66,9.84,0.375,18,-23.6875,-2.75,-2.4375,0.5625,0.999451,0.0245972,0.0213013,-0.00518799
2.25,-3.25,1.75,-0.22,0.58,9.94,0.375,18,-23.6875,-2.8125,-2.375,0.5625,0.999451,0.0247192,0.0209961,-0.00500488
1.5625,-3.5625,2.5,0,0.42,9.91,0.375,18,-23.6875,-2.8125,-2.375,0.5,0.999451,0.0247803,0.020752,-0.00482178
0.9375,-3.125,2.5,0,0.42,9.91,0.375,18,-23.6875,-2.8125,-2.3125,0.5,0.999451,0.0249023,0.0205688,-0.00445557
1.0625,-1.625,4.4375,-0.06,0.38,9.88,0,17.6875,-23.25,-2.8125,-2.3125,0.4375,0.999451,0.0250244,0.0205688,-0.00396729
1.3125,0,4.25,-0.7,0.65,9.79,0,17.6875,-23.25,-2.8125,-2.3125,0.375,0.999451,0.0251465,0.0205688,-0.00360107
1.1875,0.375,0.875,-0.85,0.74,9.74,0,17.6875,-23.25,-2.875,-2.3125,0.375,0.999451,0.0252075,0.0205688,-0.00354004
0.9375,-0.5,-2.625,-0.54,0.72,9.84,0,17.6875,-23.25,-2.875,-2.3125,0.375,0.999451,0.0252075,0.0203857,-0.00378418
0.5,-2.25,-2.625,-0.54,0.72,9.84,0,17.6875,-23.25,-2.875,-2.3125,0.375,0.999451,0.0252075,0.0200195,-0.00415039
-0.3125,-4.25,-4,-0.23,0.59,9.86,1.0625,16.875,-22.875,-2.875,-2.25,0.4375,0.999512,0.0251465,0.0195312,-0.00439453
-0.6875,-5.5,-1.0625,0.11,0.33,9.77,1.0625,16.875,-22.875,-2.8125,-2.1875,0.5,0.999512,0.0251465,0.019104,-0.0045166
0.0625,-5.6875,2,0.09,0.41,9.88,1.0625,16.875,-22.875,-2.8125,-2.125,0.4375,0.999512,0.0251465,0.0184937,-0.0043335
0.4375,-6.75,5.0625,0.04,0.51,9.86,1.0625,16.875,-22.875,-2.8125,-2.0625,0.4375,0.999512,0.0251465,0.0180054,-0.00390625
0.125,-5.6875,5.0625,0.04,0.51,9.86,1.0625,16.875,-22.875,-2.875,-2,0.375,0.999512,0.0251465,0.0176392,-0.00335693
0.0625,-4.25,7,0.02,0.56,9.92,0,19.5,-23.25,-2.8125,-1.9375,0.25,0.999512,0.0250854,0.017334,-0.00268555
-0.9375,-2.875,8,-0.04,0.51,9.75,0,19.5,-23.25,-2.8125,-1.9375,0.1875,0.999512,0.0249634,0.0172119,-0.00201416
-1.6875,-1.875,7.3125,-0.59,0.41,9.86,0,19.5,-23.25,-2.8125,-1.9375,0.125,0.999512,0.0249023,0.0171509,-0.00140381
-0.875,-0.5,5.1875,-1.29,0.27,9.21,0,19.5,-23.25,-2.8125,-1.875,0.0625,0.999573,0.0249023,0.0167236,-0.000976562
-0.5,-5.375,5.1875,-1.29,0.27,9.21,0,19.5,-23.25,-2.8125,-1.875,0.0625,0.999573,0.0250244,0.0155029,-0.000793457
1.875,-14.375,2.5625,-1.24,0.14,9.19,0,18,-24.5,-2.8125,-1.75,0.0625,0.999573,0.0255737,0.0134888,-0.000793457
6,-23.6875,2.625,-0.21,0.09,9.43,0,18,-24.5,-3,-1.1875,0.0625,0.999573,0.0263062,0.0106201,-0.000610352
8.75,-33.75,8.375,0.63,0.34,9.98,0,18,-24.5,-3.0625,-0.8125,0,0.999573,0.0272217,0.00732422,0
10.75,-38.8125,15.5,0.62,0.55,10.22,0,18,-24.5,-3.1875,-0.4375,359.812,0.999573,0.0280762,0.00396729,0.0012207
10.0625,-39.5625,15.5,0.62,0.55,10.22,0,18,-24.5,-3.25,0,359.812,0.999573,0.0286865,0.000427246,0.00286865
7.125,-40.9375,22.1875,0.62,0.62,10.17,0.375,17.6875,-23.25,-3.3125,0.375,359.625,0.999573,0.0290527,-0.00341797,0.00518799
4.1875,-44.6875,34.375,0.73,0.45,9.76,0.375,17.6875,-23.25,-3.3125,0.875,359.062,0.999512,0.0292969,-0.00750732,0.00799561
3.0625,-47.0625,38.25,0.58,0.42,9.54,0.375,17.6875,-23.25,-3.375,1.375,358.688,0.999451,0.0296021,-0.0117188,0.0111084
3.5,-49.3125,39.625,0.53,0.45,9.38,0.375,17.6875,-23.25,-3.4375,1.875,358.312,0.999329,0.0302124,-0.0162964,0.0142822
6.875,-52.6875,39.625,0.53,0.45,9.38,0.375,17.6875,-23.25,-3.4375,1.875,358.312,0.999329,0.0310669,-0.0211182,0.0161133
10.5,-55.5625,40.125,0.18,0.41,9.97,-1.0625,17.25,-24.5,-3.5,2.4375,358.125,0.999146,0.0320435,-0.0262451,0.0193481
10.875,-59.875,40,0.48,0.04,10.17,-1.0625,17.25,-24.5,-3.625,3.6875,357.375,0.998718,0.0328369,-0.0319214,0.022583
9.5625,-66.25,41.1875,0.83,-0.04,10.11,-1.0625,17.25,-24.5,-3.6875,4.4375,357,0.998352,0.0336304,-0.0379639,0.0258789
9,-70.3125,43.375,1.29,-0.16,10.4,-1.0625,17.25,-24.5,-3.8125,5.1875,356.625,0.997986,0.0344849,-0.0443115,0.0293579
9.9375,-73.75,43.375,1.29,-0.16,10.4,-1.0625,17.25,-24.5,-3.8125,5.1875,356.625,0.997498,0.0352783,-0.0511475,0.032959
9.125,-79.9375,50.4375,1.75,-0.16,10.07,-0.75,17.6875,-24.0625,-3.875,6.8125,355.75,0.996948,0.0358887,-0.0584717,0.0369873
7.25,-85.4375,50.4375,1.74,-0.27,10.22,-0.75,17.6875,-24.0625,-3.875,7.75,355.188,0.996277,0.036499,-0.0661621,0.0413818
7,-89.75,54.75,1.61,-0.24,10.47,-0.75,17.6875,-24.0625,-3.875,8.6875,354.688,0.995483,0.0370483,-0.0742798,0.0460815
6.5625,-94.125,59.25,1.81,-0.19,10.71,-0.75,17.6875,-24.0625,-3.8125,9.6875,354.062,0.994568,0.0374146,-0.0828247,0.0510864
4.25,-99.6875,62.8125,1.81,-0.19,10.71,-0.75,17.6875,-24.0625,-3.8125,9.6875,354.062,0.993469,0.0374146,-0.0917969,0.0563354
-0.25,-104.188,66.5625,1.99,-0.14,11.03,-1.5,17.25,-24.5,-3.6875,10.75,353.5,0.992249,0.0368652,-0.101013,0.0618286
-5.875,-107,70.5,2.06,-0.21,11.01,-1.5,17.25,-24.5,-3.25,12.9375,352.188,0.990906,0.0358887,-0.110596,0.0675049
-10.75,-111.375,72.75,2.18,-0.43,11.25,-1.5,17.25,-24.5,-3,14.0625,351.5,0.98938,0.034668,-0.120728,0.0731201
-14.8125,-117.375,73,2.05,-0.59,11.61,-1.5,17.25,-24.5,-2.625,15.3125,350.875,0.987671,0.03302,-0.131165,0.0784912
-19.4375,-120.75,71.375,2.05,-0.59,11.61,-1.5,17.25,-24.5,-2.625,15.3125,350.875,0.987671,0.03302,-0.131165,0.0835571
-23.875,-122.875,67.875,1.86,-0.56,11.45,-2.25,17.25,-24.5625,-2.25,16.5,350.25,0.985901,0.0311279,-0.141724,0.0881958
-26.75,-125.688,63.3125,2.48,-0.4,10.59,-2.25,17.25,-24.5625,-1.3125,19,349.188,0.981812,0.0269165,-0.163696,0.0924683
-27.3125,-129.875,59.625,3.14,-0.35,9.64,-2.25,17.25,-24.5625,-0.875,20.375,348.688,0.979431,0.0250244,-0.175354,0.0966187
-25.8125,-137,57.875,3.5,-0.37,9.25,-2.25,17.25,-24.5625,-0.5,21.8125,348.188,0.976685,0.0236206,-0.188049,0.100586
-22.25,-149.5,56.1875,3.5,-0.37,9.25,-2.25,17.25,-24.5625,-0.5,21.8125,348.188,0.976685,0.0236206,-0.201904,0.104431
-17.4375,-165.625,53.9375,3.78,-0.56,9.17,-3.25,17.6875,-23.5625,-0.125,23.4375,347.75,0.973572,0.0227051,-0.217224,0.108032
-13.6875,-183.438,51.25,4.58,-1.02,10.6,-3.25,17.6875,-23.5625,0.5625,27.125,346.812,0.965698,0.0222168,-0.233582,0.111389
-12.4375,-197.875,48.5625,4.71,-1.07,11.23,-3.25,17.6875,-23.5625,0.9375,29.0625,346.375,0.960999,0.0220947,-0.25061,0.114685
-13.25,-206.188,48.25,4.96,-1.14,11.47,-3.25,17.6875,-23.5625,1.4375,31.125,345.875,0.955933,0.0216675,-0.267883,0.118042
-17.5,-210.312,50.75,4.96,-1.14,11.47,-3.25,17.6875,-23.5625,1.4375,31.125,345.875,0.955933,0.0216675,-0.285095,0.121582
-23,-209.625,55.0625,5.36,-1.43,11.27,-4.75,17.6875,-23.1875,2,33.125,345.375,0.950562,0.0206299,-0.302063,0.125244
-27.5625,-206.875,59.1875,5.62,-1.49,10.65,-4.75,17.6875,-23.1875,3.5625,37.0625,344.312,0.938843,0.0171509,-0.318787,0.129028
-31.8125,-205.438,62.0625,5.66,-1.46,10.39,-4.75,17.6875,-23.1875,4.5,39,343.75,0.932495,0.0147705,-0.335632,0.13269
-36.75,-206.625,62.6875,5.72,-1.68,9.81,-4.75,17.6875,-23.1875,5.5625,41,343.25,0.92572,0.012146,-0.352783,0.135986
-42.25,-211.25,60.3125,5.72,-1.68,9.81,-4.75,17.6875,-23.1875,5.5625,41,343.25,0.92572,0.012146,-0.352783,0.135986
-48.1875,-217.625,54.3125,5.86,-1.87,9.75,-6.1875,18.5,-21.0625,6.6875,43.0625,342.812,0.918457,0.00921631,-0.3703,0.13855
-54.6875,-224.938,45.875,6.2,-2.06,9.4,-6.1875,18.5,-21.0625,9.25,47.3125,342.25,0.902527,0.00299072,-0.406921,0.140808
-61.625,-232.5,36.5,6.72,-1.77,8.7,-6.1875,18.5,-21.0625,10.625,49.5,342.125,0.893921,-0.000244141,-0.425659,0.140503
-66.875,-236.438,27.375,6.93,-1.43,8.16,-6.1875,18.5,-21.0625,12.0625,51.6875,342.062,0.88501,-0.00335693,-0.444153,0.139526
-68.8125,-235.688,19.4375,6.93,-1.43,8.16,-6.1875,18.5,-21.0625,12.0625,51.6875,342.062,0.88501,-0.00335693,-0.444153,0.139526
-67.5625,-231.188,14.125,7.13,-1.27,7.47,-8.875,20,-19.6875,13.5625,53.875,342.062,0.875977,-0.00622559,-0.462158,0.138062
-63.5,-225.5,10.3125,7.07,-1.6,5.6,-8.875,20,-19.6875,16.625,58,342.125,0.857666,-0.0106201,-0.496155,0.134766
-56.9375,-220,7.125,7.24,-1.75,5.32,-8.875,20,-19.6875,18.1875,59.9375,342.125,0.848389,-0.0118408,-0.512207,0.133179
-49.125,-215,3.5,7.55,-1.81,5.16,-8.875,20,-19.6875,19.8125,61.875,342.125,0.839172,-0.0125732,-0.527527,0.131592
-42.125,-208.688,0.6875,7.55,-1.81,5.16,-8.875,20,-19.6875,19.8125,61.875,342.125,0.839172,-0.0125732,-0.527527,0.131592
-37.4375,-200.938,-0.0625,8.11,-1.84,5.01,-11.5,21.1875,-17,21.5,63.6875,342.125,0.830078,-0.0130005,-0.542114,0.130066
-35.1875,-193.312,1.125,7.94,-1.68,4.45,-11.5,21.1875,-17,25.4375,67.0625,342.125,0.812073,-0.0137939,-0.569336,0.127441
-35,-188.188,1.5625,7.94,-1.38,3.18,-11.5,21.1875,-17,27.8125,68.6875,342.125,0.802979,-0.0142822,-0.582397,0.125977
-35.5,-185.875,0.625,7.94,-1.27,2.55,-11.5,21.1875,-17,30.4375,70.1875,342.125,0.793823,-0.0147095,-0.595093,0.124451
-34.5,-182.562,-0.375,7.94,-1.27,2.55,-11.5,21.1875,-17,30.4375,70.1875,342.125,0.793823,-0.0147095,-0.595093,0.124451
-31.375,-175.625,-0.5,7.77,-1.09,1.45,-14.25,23.375,-14.75,36.4375,72.9375,341.875,0.776062,-0.0134888,-0.618225,0.123779
-26.1875,-164.125,0.375,7.32,-0.63,0.52,-14.25,23.375,-14.75,39.6875,74.0625,341.75,0.768188,-0.0131836,-0.628113,0.123108
-18,-148.75,1.375,7.09,-0.41,0.25,-14.25,23.375,-14.75,42.8125,75.0625,341.625,0.761169,-0.0123901,-0.636719,0.122864
-7.75,-131.625,1.25,6.95,-0.26,0,-14.25,23.375,-14.75,45.8125,75.8125,341.438,0.754944,-0.0110474,-0.644043,0.123169
2.8125,-115.062,-0.4375,6.95,-0.26,0,-14.25,23.375,-14.75,45.8125,75.8125,341.438,0.754944,-0.0110474,-0.644043,0.123169
13.125,-99.875,-2.875,6.85,-0.18,-0.19,-16.875,23.0625,-12.375,48.5,76.5,340.625,0.74884,-0.00561523,-0.65033,0.127686
22.5625,-87.25,-5.1875,6.44,-0.98,0.62,-16.875,23.0625,-12.375,53.1875,77.625,340.062,0.739685,0.000183105,-0.660339,0.129761
29.0625,-81.5625,-8,5.59,-1.18,0.66,-16.875,23.0625,-12.375,55.6875,78.25,339.812,0.734985,0.00396729,-0.665344,0.130798
33.375,-86.0625,-13.0625,5.59,-0.92,-0.03,-16.875,23.0625,-12.375,58.75,78.875,339.5,0.729736,0.00830078,-0.670898,0.131653
36,-96,-17.9375,6.23,-0.92,-0.03,-16.875,23.0625,-12.375,58.75,78.875,339.5,0.729736,0.00830078,-0.670898,0.131653
36.125,-104.688,-20.25,7.59,-0.86,1.24,-17.6875,24.1875,-9.375,66.4375,80.0625,338.562,0.718262,0.019104,-0.682129,0.135681
32.25,-93.25,-15.3125,8.68,-0.84,1.37,-17.6875,24.1875,-9.375,69.25,80.3125,338.25,0.714844,0.0213623,-0.685425,0.136963
25.125,-59.1875,-1.25,8.82,0,1.66,-17.6875,24.1875,-9.375,70.1875,80.1875,337.938,0.713745,0.0217896,-0.686218,0.138794
17.5,-15.75,14.0625,6.68,0.1,0.89,-17.6875,24.1875,-9.375,69.3125,79.9375,337.688,0.714844,0.0205688,-0.684631,0.140808
7.625,24.9375,24.625,5.45,0.1,0.89,-17.6875,24.1875,-9.375,69.3125,79.9375,337.688,0.714844,0.0205688,-0.684631,0.140808
-6.125,45,29,4.99,0.2,0.21,-18.5,24.1875,-9,67.6875,79.5,337.5,0.717102,0.0179443,-0.682068,0.142273
-14.4375,57.5625,26.125,5.13,-0.56,-1.08,-18.5,24.1875,-9,62.8125,78.5625,337.562,0.724182,0.0122681,-0.674377,0.143616
-11.5,74.5,18.1875,4.89,-0.86,-1.21,-18.5,24.1875,-9,59.5,78.125,337.625,0.729004,0.0105591,-0.669128,0.143982
-3.75,86.125,7.4375,4.58,-1.19,-1.13,-18.5,24.1875,-9,56.125,77.6875,337.75,0.733826,0.00994873,-0.663879,0.143982
3.375,84.6875,-3.6875,4.36,-1.19,-1.13,-18.5,24.1875,-9,56.125,77.6875,337.75,0.733826,0.00994873,-0.663879,0.143982
9.1875,77.4375,-12.4375,5.82,-2.03,0.13,-18.75,23.75,-8.5625,52.9375,77.375,337.938,0.738281,0.0102539,-0.658936,0.143799
12.875,81.125,-14.5625,7.18,-2.41,2.43,-18.75,23.75,-8.5625,46.1875,76.375,338.25,0.748779,0.0108032,-0.646912,0.143799
10.875,105.125,-8.75,8.12,-2.13,4.3,-18.75,23.75,-8.5625,42.5,75.375,338.438,0.756226,0.0090332,-0.638184,0.143921
-0.625,137.375,0.6875,7.59,-2.25,4.72,-18.75,23.75,-8.5625,39.1875,74.1875,338.688,0.764771,0.00537109,-0.628113,0.143494
-19.9375,160.625,8,7.28,-2.25,4.72,-18.75,23.75,-8.5625,39.1875,74.1875,338.688,0.764771,0.00537109,-0.628113,0.143494
-42.6875,162.812,12.875,6.2,-1.9,5.38,-17.1875,24.1875,-11.0625,36.625,72.875,339.125,0.773193,-6.10352e-05,-0.618042,0.14209
-69.0625,144.5,13.875,6.34,-2.06,4.46,-17.1875,24.1875,-11.0625,34.375,70.5625,340.438,0.786682,-0.015625,-0.602112,0.135498
-94.9375,126.062,16.75,7.91,-2.19,3.59,-17.1875,24.1875,-11.0625,34.125,69.4375,341.188,0.792419,-0.0258179,-0.595093,0.131287
-112.75,123.875,24.8125,7.96,-2.22,2.63,-17.1875,24.1875,-11.0625,34.0625,68.125,341.875,0.798523,-0.0369873,-0.587158,0.127197
-119.625,136.125,33.6875,7.29,-2.22,2.63,-17.1875,24.1875,-11.0625,34.0625,68.125,341.875,0.798523,-0.0369873,-0.587158,0.127197
-116.625,152.688,37.1875,6.53,-2.32,1.7,-15.5625,24.875,-12.1875,33.9375,66.75,342.562,0.805237,-0.0483398,-0.577942,0.123413
-105.062,168.375,35,6.33,-3.52,2.43,-15.5625,24.875,-12.1875,33,63.5625,343.75,0.820129,-0.0686035,-0.555847,0.116943
-91.8125,177.438,32.625,6.98,-4.33,3.57,-15.5625,24.875,-12.1875,32.5,61.875,344.25,0.82782,-0.0776978,-0.543701,0.11438
-81.5,182.938,34.3125,7.78,-4.69,5.11,-15.5625,24.875,-12.1875,32.0625,60.125,344.625,0.835449,-0.086792,-0.530884,0.112366
-78.1875,188.688,40.5625,8.47,-4.69,5.11,-15.5625,24.875,-12.1875,32.0625,60.125,344.625,0.835449,-0.086792,-0.530884,0.112366
-81.5,189.438,48.625,8.42,-4.85,5.35,-14.75,25.6875,-13.375,31.9375,58.3125,345,0.842773,-0.0965576,-0.517883,0.110779
-87.375,186.25,57.4375,8.39,-5.41,6.18,-14.75,25.6875,-13.375,32.3125,54.625,345.5,0.855835,-0.118286,-0.491699,0.108459
-94.4375,186.625,65.75,8.34,-5.76,7.62,-14.75,25.6875,-13.375,32.75,52.6875,345.75,0.862122,-0.130554,-0.4776,0.107544
-102.812,196.125,74,7.5,-5.63,8.01,-14.75,25.6875,-13.375,33.1875,50.5,346,0.868591,-0.14386,-0.462097,0.106323
-113.188,214.25,78,6.83,-5.63,8.01,-14.75,25.6875,-13.375,33.1875,50.5,346,0.868591,-0.14386,-0.462097,0.106323
-124.062,230.438,75.0625,6.73,-5.66,8.15,-12.1875,26.6875,-13,33.6875,48.25,346.375,0.875183,-0.157959,-0.445251,0.104126
-133,238.875,69.625,6.95,-5.95,7.99,-12.1875,26.6875,-13,34.75,43.6875,346.875,0.887451,-0.187195,-0.40979,0.0974731
-138.625,242,67,9.12,-7.93,7.69,-12.1875,26.6875,-13,35.375,41.3125,347.938,0.8927,-0.202271,-0.391541,0.0942383
-141.688,241.438,73.375,9.17,-8.13,7.94,-12.1875,26.6875,-13,36.1875,39,348.25,0.897156,-0.217773,-0.373108,0.09198
-143.188,238.75,87,9.58,-8.13,7.94,-12.1875,26.6875,-13,36.1875,39,348.25,0.897156,-0.217773,-0.373108,0.09198
-145.625,233.938,101,9.12,-8.54,8.07,-8.375,29.6875,-13.25,37.1875,36.5625,348.5,0.900818,-0.233765,-0.354553,0.0906982
-147.25,231.438,111.125,8.08,-8.59,8.03,-8.375,29.6875,-13.25,39.3125,31.75,348.688,0.905945,-0.266235,-0.316833,0.0896606
-148.875,229.812,112.75,7.18,-8.69,8.59,-8.375,29.6875,-13.25,40.375,29.375,348.812,0.907593,-0.282288,-0.297852,0.088501
-151.375,231.25,105.812,6.33,-8.84,10.02,-8.375,29.6875,-13.25,41.5,27.0625,349.188,0.908875,-0.29834,-0.278625,0.0858765
-157,236.562,91.875,5.55,-8.84,10.02,-8.375,29.6875,-13.25,41.5,27.0625,349.188,0.908875,-0.29834,-0.278625,0.0858765
-167.062,243.625,74,5.31,-8.93,10.73,-4,31.375,-10.5,42.5625,24.8125,349.75,0.909546,-0.314575,-0.259155,0.0814819
-182.688,247.375,53.5625,5.24,-8.9,11.3,-4,31.375,-10.5,45.1875,20.8125,350.562,0.908203,-0.348999,-0.221313,0.0663452
-203.125,246.375,30.8125,5.48,-8.4,10.7,-4,31.375,-10.5,46.8125,19.125,352.938,0.905579,-0.367737,-0.203857,0.0556641
-226.188,239.5,8.4375,5.64,-8.09,9.98,-4,31.375,-10.5,48.625,17.75,354.438,0.90155,-0.387329,-0.187866,0.043396
-247,228.5,-11.75,5.68,-7.85,9.98,-4,31.375,-10.5,48.625,17.75,354.438,0.90155,-0.387329,-0.187866,0.043396
-263.25,214.25,-29.75,5.7,-7.66,9.26,-0.6875,33.1875,-6.5,50.625,16.625,356.125,0.896057,-0.407532,-0.173401,0.0299072
-273.812,198.375,-45.25,5.78,-7.14,7.95,-0.6875,33.1875,-6.5,54.9375,15.1875,359.875,0.881409,-0.44812,-0.149231,0.000976562
-278.688,182.438,-57.625,5.89,-6.99,6.64,-0.6875,33.1875,-6.5,57.1875,14.8125,1.75,0.87262,-0.467896,-0.139343,-0.0136719
-278.562,165.625,-65.4375,6.05,-6.92,5.92,-0.6875,33.1875,-6.5,59.4375,14.625,3.625,0.863159,-0.486938,-0.130737,-0.02771
-274.062,148.125,-67.1875,6.53,-7.03,5.92,-0.6875,33.1875,-6.5,59.4375,14.625,3.625,0.863159,-0.486938,-0.130737,-0.02771
-265.625,132.375,-62.75,6.52,-7.06,5.66,-0.75,33.375,1.6875,61.625,14.5,5.4375,0.853271,-0.505127,-0.122986,-0.0406494
-255.062,116.875,-54.875,6.42,-7.11,5.42,-0.75,33.375,1.6875,65.875,14.4375,7.0625,0.833008,-0.538696,-0.109741,-0.0622559
-242.875,100.438,-44.9375,6.28,-7.14,5.07,-0.75,33.375,1.6875,67.875,14.4375,9.8125,0.822998,-0.553894,-0.104187,-0.0706787
-229.125,84.8125,-35.375,5.87,-7.18,5.48,-0.75,33.375,1.6875,69.75,14.4375,10.875,0.813232,-0.568115,-0.0991821,-0.0777588
-215.688,70.5625,-26.6875,5.77,-7.18,5.48,-0.75,33.375,1.6875,69.75,14.4375,10.875,0.813232,-0.568115,-0.0991821,-0.0777588
-205.562,57.5625,-19.375,5.21,-6.97,4.87,-1.5625,33.375,9.375,71.5625,14.4375,11.8125,0.803589,-0.581604,-0.0947876,-0.0835571
-194.312,45.1875,-15.125,4.93,-6.81,4.8,-1.5625,33.375,9.375,75,14.4375,13.4375,0.785095,-0.606018,-0.0878906,-0.0925903
-182.125,37.625,-14,3.97,-6.23,4.8,-1.5625,33.375,9.375,76.5625,14.5,14.125,0.776428,-0.616943,-0.0852051,-0.0964966
-170.5,32.4375,-14.875,3.89,-5.98,4.57,-1.5625,33.375,9.375,78,14.625,14.8125,0.768188,-0.626892,-0.0828247,-0.100098
-158.25,28.25,-15.375,4.1,-5.99,4.57,-1.5625,33.375,9.375,78,14.625,14.8125,0.768188,-0.626892,-0.0828247,-0.100098
-144.125,26.125,-14.375,4.13,-6.09,3.81,-4.5,31.5625,15.5625,80.5,14.75,15.75,0.753906,-0.643616,-0.0802612,-0.104492
-128.75,24.5,-12.4375,4,-6.03,3.62,-4.5,31.5625,15.5625,81.5625,14.8125,16.25,0.747864,-0.650452,-0.0783691,-0.107117
-112.062,22.375,-10.3125,3.75,-5.96,3.39,-4.5,31.5625,15.5625,82.4375,14.875,16.75,0.742676,-0.656189,-0.0767822,-0.109375
-94.4375,19.5625,-8.8125,3.67,-5.83,3.08,-4.5,31.5625,15.5625,83.0625,14.9375,17.125,0.738525,-0.660645,-0.0755005,-0.111267
-75.125,16.125,-8,3.52,-5.66,3.08,-4.5,31.5625,15.5625,83.0625,14.9375,17.125,0.738525,-0.660645,-0.0755005,-0.111267
-54.875,11.875,-8.0625,3.39,-5.54,3.09,-4.5,29.25,19.6875,83.5625,15,16.875,0.735962,-0.663574,-0.0776978,-0.109436
-34.5,8.4375,-9.875,3.22,-5.39,3.05,-4.5,29.25,19.6875,83.875,15.125,17.125,0.734009,-0.665588,-0.0773926,-0.110779
-13.625,4.4375,-13.0625,3.2,-5.67,4.07,-4.5,29.25,19.6875,84,15.375,17.4375,0.733093,-0.666077,-0.0789185,-0.112427
2.625,-5.8125,-14,3.64,-5.58,4.68,-4.5,29.25,19.6875,83.9375,15.5,17.375,0.733643,-0.665344,-0.0807495,-0.112122
13.25,-16.5,-11.4375,3.79,-5.36,4.68,-4.5,29.25,19.6875,83.9375,15.5,17.375,0.733643,-0.665344,-0.0807495,-0.112122
20.5,-22.1875,-7.5625,4.01,-5.31,4.84,-4.1875,28.25,22.25,83.75,15.5625,16.5625,0.735168,-0.663757,-0.0864868,-0.107056
27.5625,-25.6875,-2.125,4.2,-5.49,4.95,-4.1875,28.25,22.25,83.5625,15.625,16.3125,0.736511,-0.662231,-0.0884399,-0.105591
34.5625,-28.1875,4.875,4.28,-5.58,5.17,-4.1875,28.25,22.25,83,15.5,15.4375,0.740479,-0.658142,-0.0916748,-0.100647
41.75,-29.125,13.3125,4.23,-5.61,5.08,-4.1875,28.25,22.25,82.625,15.375,14.875,0.743225,-0.655457,-0.0927734,-0.09729
49.625,-29.875,21.3125,3.92,-5.6,5.08,-4.1875,28.25,22.25,82.625,15.375,14.875,0.743225,-0.655457,-0.0927734,-0.09729
59.4375,-32.0625,27.375,3.76,-5.73,4.97,-4.1875,27.5625,21.6875,82.125,15.125,13.625,0.746948,-0.651672,-0.0971069,-0.0894165
71.0625,-34.375,32.5,4.04,-5.86,5.47,-4.1875,27.5625,21.6875,81.5625,14.875,12.875,0.750793,-0.647705,-0.0980225,-0.0848999
80.0625,-36.625,37.5625,3.93,-6.09,6.24,-4.1875,27.5625,21.6875,80.125,14.25,11.1875,0.759705,-0.638306,-0.0995483,-0.0744629
85.1875,-36.6875,41.75,4.06,-6.49,6.12,-4.1875,27.5625,21.6875,79.375,13.875,10.25,0.764343,-0.633301,-0.0999146,-0.0689087
87.375,-35.4375,44.6875,2.95,-6.46,6.12,-4.1875,27.5625,21.6875,79.375,13.875,10.25,0.764343,-0.633301,-0.0999146,-0.0689087
88.6875,-36.8125,42.125,3.1,-6.54,5.94,-3.0625,28.875,18.75,78.625,13.5,8.8125,0.769348,-0.627563,-0.104004,-0.0592651
91.5625,-34.5,35.8125,3.02,-6.5,5.92,-3.0625,28.875,18.75,77.875,13.25,8,0.774048,-0.62207,-0.104797,-0.0543213
95.4375,-30,26.5625,2.58,-6.45,5.87,-3.0625,28.875,18.75,76.125,13,6.8125,0.783875,-0.609802,-0.107117,-0.046875
100.188,-25.75,15.75,2.56,-6.6,5.87,-3.0625,28.875,18.75,75.125,13,6.4375,0.789246,-0.602783,-0.108704,-0.0444946
107.562,-21.375,4.8125,2.71,-6.86,5.85,-3.0625,28.875,18.75,75.125,13,6.4375,0.789246,-0.602783,-0.108704,-0.0444946
116.5,-17.5625,-4.125,3.24,-7.06,6.14,-2.25,30.375,17.1875,74,13.0625,5.625,0.795105,-0.594543,-0.112976,-0.0394897
124.938,-12.875,-10.3125,3.57,-7.11,6.34,-2.25,30.375,17.1875,72.8125,13.1875,5.4375,0.801208,-0.58606,-0.114746,-0.0383301
132.25,-7.5625,-13.6875,3.68,-7.2,6.51,-2.25,30.375,17.1875,70.1875,13.5,5.1875,0.814209,-0.567322,-0.117737,-0.0371704
138.5,-2.8125,-15.3125,3.62,-7.32,6.67,-2.25,30.375,17.1875,68.8125,13.625,5.125,0.820984,-0.55719,-0.118958,-0.0368652
144.25,-0.25,-16.4375,3.62,-7.63,6.9,-2.25,30.375,17.1875,68.8125,13.625,5.125,0.820984,-0.55719,-0.118958,-0.0368652
149.562,1.3125,-18.0625,3.49,-7.83,7.02,-1.1875,30.6875,13.0625,67.3125,13.8125,4.5625,0.828064,-0.546082,-0.122559,-0.0330811
154.875,0.9375,-20.8125,3.47,-8.1,6.99,-1.1875,30.6875,13.0625,65.8125,14,4.5,0.835083,-0.534973,-0.123901,-0.03302
160.25,-0.5625,-24.6875,3.41,-8.2,7,-1.1875,30.6875,13.0625,62.625,14.5,4.4375,0.849304,-0.51123,-0.12738,-0.0333252
165.188,-2.6875,-29.8125,3.52,-8.45,7.46,-1.1875,30.6875,13.0625,60.9375,14.8125,4.5,0.856323,-0.498718,-0.129822,-0.0337524
168.75,-6.0625,-35.625,3.64,-8.52,7.63,-1.1875,30.6875,13.0625,60.9375,14.8125,4.5,0.856323,-0.498718,-0.129822,-0.0337524
170.5,-11.0625,-41.8125,3.7,-8.55,7.69,-3.0625,33.375,9,59.25,15.1875,4.4375,0.86322,-0.485779,-0.13324,-0.0338135
171.438,-17.9375,-48.0625,3.82,-8.79,7.8,-3.0625,33.375,9,57.5625,15.6875,4.5,0.869812,-0.472778,-0.137024,-0.0346069
172,-25.5625,-54.25,3.89,-8.87,7.75,-3.0625,33.375,9,54.1875,16.9375,4.75,0.882141,-0.446106,-0.14679,-0.0366821
172.375,-32.75,-59.8125,4.04,-8.92,7.82,-3.0625,33.375,9,52.5,17.6875,4.875,0.887817,-0.432495,-0.152649,-0.0379639
172.125,-38.5625,-65.125,4.16,-8.9,7.89,-3.0625,33.375,9,52.5,17.6875,4.875,0.887817,-0.432495,-0.152649,-0.0379639
170.562,-42.5,-69.125,4.41,-8.89,8.08,-3.0625,34.0625,4.1875,50.8125,18.4375,4.9375,0.893188,-0.418762,-0.159241,-0.0385742
168.188,-44.9375,-72.25,4.47,-8.9,8.29,-3.0625,34.0625,4.1875,49.1875,19.25,5.0625,0.898193,-0.405212,-0.16571,-0.0401611
164,-46.25,-74.375,4.44,-8.95,8.38,-3.0625,34.0625,4.1875,45.9375,20.9375,5.5,0.906982,-0.378723,-0.179016,-0.0438232
158.688,-47.8125,-76.25,4.51,-9.18,8.51,-3.0625,34.0625,4.1875,44.375,21.8125,5.5,0.910767,-0.365967,-0.185852,-0.0459595
153.188,-48.625,-78.3125,4.46,-9.15,8.57,-3.0625,34.0625,4.1875,44.375,21.8125,5.75,0.910767,-0.365967,-0.185852,-0.0459595
147.688,-48.1875,-80.4375,4.35,-9.11,8.57,-4.875,33.6875,-1.75,42.875,22.6875,6,0.914124,-0.353455,-0.192566,-0.0483398
141.25,-47.5,-82.9375,4.3,-9.03,8.66,-4.875,33.6875,-1.75,41.375,23.5625,6.3125,0.917114,-0.34137,-0.19928,-0.0540771
134.188,-47.1875,-86.0625,4.18,-8.74,8.45,-4.875,33.6875,-1.75,38.5,25.375,7.125,0.921997,-0.318481,-0.212585,-0.0574951
126.625,-46,-89.1875,4.1,-8.55,8.36,-4.875,33.6875,-1.75,37.125,25.375,7.125,0.923889,-0.307739,-0.218994,-0.0614014
119.188,-43.125,-92.5625,4.03,-8.39,8.21,-4.875,33.6875,-1.75,37.125,26.25,7.5625,0.923889,-0.307739,-0.218994,-0.0614014
112.312,-39.5625,-95.75,3.99,-8.23,8.02,-7.0625,33.75,-5.875,35.8125,27.0625,8.125,0.925476,-0.297363,-0.225159,-0.0657349
106.5,-35.6875,-98.9375,4.14,-8.04,7.45,-7.0625,33.75,-5.875,34.4375,27.9375,8.6875,0.92688,-0.287354,-0.231018,-0.0705566
102.125,-31.4375,-100.688,4.28,-7.96,7.23,-7.0625,33.75,-5.875,31.75,29.4375,9.9375,0.929199,-0.267883,-0.241455,-0.0809937
99.3125,-25.5625,-100.875,4.33,-7.86,7.27,-7.0625,33.75,-5.875,30.4375,29.4375,9.9375,0.930176,-0.258362,-0.245911,-0.0864868
96.3125,-19.5,-100.375,4.21,-7.48,7.05,-7.0625,33.75,-5.875,30.4375,30.125,10.5625,0.930176,-0.258362,-0.245911,-0.0864868
92.5625,-14.6875,-99.25,4.22,-7.25,6.8,-9.375,31.1875,-5.75,29.0625,30.6875,11.25,0.931152,-0.249146,-0.249939,-0.092041
88.1875,-9.1875,-97.0625,4.19,-7.06,6.57,-9.375,31.1875,-5.75,27.75,31.25,11.9375,0.932007,-0.240234,-0.253357,-0.0975952
84,-2.8125,-94.5,4.04,-6.86,6.29,-9.375,31.1875,-5.75,25.125,32.0625,13.25,0.933594,-0.223206,-0.258484,-0.108704
80.375,2.4375,-92,3.93,-6.64,5.88,-9.375,31.1875,-5.75,23.875,32.0625,13.25,0.934326,-0.215088,-0.260315,-0.114197
77.1875,7,-89.375,3.87,-6.52,5.78,-9.375,31.1875,-5.75,23.875,32.375,13.9375,0.934326,-0.215088,-0.260315,-0.114197
73.375,11.1875,-86.0625,3.85,-6.41,5.66,-11.6875,29.6875,-9.5,22.6875,32.5625,14.5625,0.934998,-0.207336,-0.261658,-0.119629
68.5,14.5,-82.375,3.69,-6.18,5.54,-11.6875,29.6875,-9.5,21.5,32.75,15.1875,0.935669,-0.19989,-0.262634,-0.124817
62.5625,16.875,-78.25,3.56,-6.07,5.41,-11.6875,29.6875,-9.5,19.375,32.9375,16.375,0.936707,-0.186707,-0.263672,-0.134888
56.375,18.4375,-74.5625,3.47,-6,5.31,-11.6875,29.6875,-9.5,19.375,32.9375,16.375,0.937134,-0.180908,-0.263733,-0.139709
50.375,19.9375,-71.1875,3.5,-5.86,5.15,-11.6875,29.6875,-9.5,18.4375,33,16.9375,0.937134,-0.180908,-0.263733,-0.139709
44.75,22.5,-66.9375,3.53,-5.67,5.01,-14,27.375,-11.5,17.5625,33,17.0625,0.937988,-0.174744,-0.264099,-0.141174
39.4375,25.625,-61.25,3.55,-5.58,4.91,-14,27.375,-11.5,16.75,32.9375,17.625,0.938354,-0.169922,-0.263428,-0.145508
34.5,29,-55.1875,3.44,-5.56,4.79,-14,27.375,-11.5,15.375,32.625,18.0625,0.93927,-0.161743,-0.260864,-0.153259
29.3125,32,-49.9375,3.31,-5.56,4.76,-14,27.375,-11.5,15.375,32.625,18.5,0.93927,-0.158447,-0.259094,-0.15686
22.9375,34.3125,-45.75,3.17,-5.36,5.04,-14,27.375,-11.5,14.8125,32.4375,18.9375,0.939758,-0.158447,-0.259094,-0.15686
15.375,37.5625,-42.625,3.13,-5.36,5.02,-13.5625,25.875,-13.1875,14.375,32.1875,18.6875,0.941101,-0.154419,-0.25769,-0.155273
6.6875,39.0625,-40,3.14,-5.35,4.95,-13.5625,25.875,-13.1875,14,31.9375,19.125,0.941467,-0.152466,-0.255188,-0.158813
-2.5,39.125,-36.625,3.33,-5.29,4.88,-13.5625,25.875,-13.1875,13.625,31.625,19.5,0.942017,-0.151123,-0.249573,-0.165649
-12.1875,40,-31.875,3.39,-5.26,4.81,-13.5625,25.875,-13.1875,13.625,31.3125,19.9375,0.942017,-0.151123,-0.246338,-0.168701
-21.4375,41.0625,-26.0625,3.44,-5.25,4.75,-13.5625,25.875,-13.1875,13.625,31,20.25,0.942261,-0.151672,-0.246338,-0.168701
-30.1875,41.875,-19.125,3.53,-5.28,4.77,-15.5,25.0625,-13.1875,13.8125,30.625,20.1875,0.942993,-0.152283,-0.243347,-0.168274
-38.4375,43.6875,-11.625,3.65,-5.42,4.77,-15.5,25.0625,-13.1875,14,30.25,20.4375,0.943237,-0.15448,-0.239441,-0.170532
-46,45.5625,-3.9375,3.63,-5.49,4.85,-15.5,25.0625,-13.1875,14.875,29.8125,20.6875,0.943787,-0.161072,-0.230591,-0.173767
-53.125,47.125,3.25,3.51,-5.55,4.91,-15.5,25.0625,-13.1875,14.875,29.375,20.8125,0.943787,-0.161072,-0.225769,-0.174866
-59.8125,48,9.3125,3.43,-5.52,4.92,-15.5,25.0625,-13.1875,15.4375,28.9375,20.9375,0.94397,-0.165283,-0.225769,-0.174866
-65.6875,48.4375,14.625,3.47,-5.53,4.92,-14.375,24.375,-13.6875,17,28.4375,20.8125,0.94342,-0.177002,-0.220093,-0.173767
-70.875,50.0625,19.3125,3.47,-5.62,4.96,-14.375,24.375,-13.6875,18.625,27.9375,20.6875,0.942688,-0.188904,-0.214233,-0.172485
-75,51.5625,23.5,3.51,-5.73,5.06,-14.375,24.375,-13.6875,20.1875,27.4375,20.5625,0.941772,-0.206848,-0.202393,-0.171265
-78.9375,52.3125,26.8125,3.52,-6.1,5.57,-14.375,24.375,-13.6875,21,26.8125,20.5625,0.941772,-0.206848,-0.196533,-0.171265
-83.1875,51.625,29.4375,3.55,-6.21,5.84,-14.375,24.375,-13.6875,21.875,26.25,20.5625,0.941589,-0.213257,-0.196533,-0.171265
-88.4375,50.3125,31.4375,3.63,-6.31,6.16,-14.0625,25.875,-13.25,22.75,25.6875,20.5625,0.941223,-0.220032,-0.190674,-0.171082
-94.25,49.9375,32.6875,3.71,-6.49,6.48,-14.0625,25.875,-13.25,23.75,25.125,20.5625,0.940735,-0.227356,-0.184753,-0.170959
-101.125,49.9375,34.25,3.85,-6.88,6.88,-14.0625,25.875,-13.25,24.75,24.5625,20.5625,0.940002,-0.243713,-0.172485,-0.170471
-109.312,48.375,36,3.96,-6.98,7.26,-14.0625,25.875,-13.25,25.875,24,20.5625,0.939026,-0.243713,-0.172485,-0.170105
-119.25,46.375,38.25,4.03,-7.12,7.58,-14.0625,25.875,-13.25,27.0625,23.4375,20.5625,0.937744,-0.253052,-0.16626,-0.170105
-130.438,43.75,40.4375,4.19,-7.33,7.73,-13.25,27.25,-12.0625,28.375,22.875,20.5,0.936096,-0.263306,-0.160095,-0.169678
-141.188,41.5625,43.1875,4.2,-7.41,7.76,-13.25,27.25,-12.0625,29.8125,22.3125,20.5,0.934082,-0.274414,-0.153809,-0.169067
-149.875,39.9375,45.6875,4.19,-7.46,7.64,-13.25,27.25,-12.0625,31.375,21.75,20.4375,0.931641,-0.286255,-0.140991,-0.16748
-156.75,38.5,47.3125,4.07,-7.49,7.57,-13.25,27.25,-12.0625,32.9375,21.1875,20.4375,0.928955,-0.298584,-0.140991,-0.16748
-161.062,36.6875,47.625,3.97,-7.51,7.44,-13.25,27.25,-12.0625,34.5625,20.625,20.375,0.925903,-0.311218,-0.134644,-0.166565
-163.062,33.875,47.25,3.97,-7.53,7.4,-11.75,28.75,-10.0625,36.25,20.125,20,0.923035,-0.323669,-0.129333,-0.162964
-163.125,30.5,46.1875,4.04,-7.65,7.38,-11.75,28.75,-10.0625,37.875,19.625,19.9375,0.919434,-0.336426,-0.123413,-0.161987
-161.438,26.6875,45.4375,4.21,-7.98,7.49,-11.75,28.75,-10.0625,39.5,19.125,19.875,0.915649,-0.348999,-0.117859,-0.159607
-158.625,22.625,45.3125,4.3,-8.14,7.64,-11.75,28.75,-10.0625,41.125,18.6875,19.8125,0.911743,-0.361389,-0.11261,-0.158081
-155.688,17.75,45.875,4.38,-8.27,7.8,-11.75,28.75,-10.0625,42.6875,18.25,19.75,0.907654,-0.373535,-0.107727,-0.158081
-153.75,12.75,47.3125,4.48,-8.4,7.89,-10.6875,30.25,-5.1875,44.25,17.8125,19.3125,0.90387,-0.385315,-0.104065,-0.154114
-152.375,8.25,49.625,4.58,-8.57,8.1,-10.6875,30.25,-5.1875,45.8125,17.4375,19.125,0.899536,-0.397278,-0.0998535,-0.151917
-151.188,3.3125,52.75,4.63,-8.57,8.27,-10.6875,30.25,-5.1875,47.375,17.0625,18.875,0.895081,-0.409119,-0.0958862,-0.149231
-150.625,-0.9375,56.25,4.61,-8.56,8.36,-10.6875,30.25,-5.1875,48.9375,16.625,18.625,0.890503,-0.420959,-0.0921021,-0.146179
-150.75,-3.375,59.8125,4.48,-8.51,8.38,-10.6875,30.25,-5.1875,50.5,16.25,18.25,0.885742,-0.432739,-0.0883179,-0.1427
-150.25,-4.9375,61.375,4.04,-8.39,8.17,-10.6875,31.75,-2.375,52.125,15.8125,17.8125,0.881042,-0.444397,-0.085083,-0.138245
-148.75,-6.375,61,3.85,-8.29,8.11,-10.6875,31.75,-2.375,53.625,15.375,17.4375,0.876038,-0.455933,-0.0814819,-0.134521
-146.688,-8.1875,58.4375,3.66,-8.18,8.04,-10.6875,31.75,-2.375,55.1875,14.9375,17.0625,0.870911,-0.467224,-0.078186,-0.130859
-144.438,-9.3125,53.25,3.33,-8.01,7.95,-10.6875,31.75,-2.375,56.6875,14.5625,16.75,0.865662,-0.478271,-0.0751343,-0.127502
-141.938,-10.375,46.375,3.17,-7.88,7.78,-10.6875,31.75,-2.375,58.125,14.25,16.4375,0.860291,-0.489014,-0.0725098,-0.124573
-138.562,-10.875,38.25,3.07,-7.8,7.59,-8.75,32.5,3.25,59.5625,14,16.0625,0.855042,-0.499268,-0.071106,-0.120728
-133.812,-11.375,29.5,3.05,-7.76,7.36,-8.75,32.5,3.25,60.875,13.8125,15.875,0.849548,-0.509216,-0.0693359,-0.118896
-127.562,-11.4375,21.125,3.1,-7.61,6.96,-8.75,32.5,3.25,62.1875,13.6875,15.8125,0.844177,-0.518555,-0.0679321,-0.117676
-120.375,-11.1875,13.5,3.22,-7.54,6.9,-8.75,32.5,3.25,63.375,13.625,15.8125,0.838928,-0.527344,-0.0669556,-0.116882
-113.062,-10.3125,7.3125,3.31,-7.49,6.88,-8.75,32.5,3.25,64.5,13.5625,15.875,0.833862,-0.535461,-0.0662231,-0.116516
-106.375,-9.4375,2.875,3.45,-7.21,6.59,-6.5625,33.6875,6.75,65.5625,13.5625,15.5,0.829468,-0.542725,-0.0679932,-0.113098
-100.25,-8.625,-0.0625,3.4,-7.01,6.37,-6.5625,33.6875,6.75,66.5625,13.625,15.625,0.824768,-0.549866,-0.067627,-0.113281
-93.8125,-7.8125,-2.0625,3.4,-6.84,6.2,-6.5625,33.6875,6.75,67.5,13.6875,15.75,0.820312,-0.556396,-0.0673218,-0.113586
-87.1875,-7.75,-3.5,3.38,-6.74,6.03,-6.5625,33.6875,6.75,68.3125,13.75,15.875,0.816162,-0.5625,-0.0671997,-0.113953
-80.25,-8.1875,-4.5625,3.3,-6.63,5.66,-6.5625,33.6875,6.75,69.125,13.8125,16,0.812195,-0.568054,-0.0671997,-0.114319
-72.6875,-9.4375,-5.3125,3.25,-6.56,5.5,-7.25,33,9.5625,69.8125,13.875,15.875,0.808838,-0.572937,-0.0687256,-0.112854
-64.25,-11.4375,-5.6875,3.26,-6.43,5.38,-7.25,33,9.5625,70.5,14,15.9375,0.805603,-0.577393,-0.0691528,-0.113037
-55.5,-13.8125,-5.75,3.31,-6.42,5.39,-7.25,33,9.5625,71.0625,14.0625,16,0.802734,-0.581299,-0.0698242,-0.113098
-47.3125,-16.8125,-4.5625,3.54,-6.33,5.48,-7.25,33,9.5625,71.5625,14.1875,16,0.800293,-0.584656,-0.0707397,-0.112854
-40.1875,-19.5,-2.0625,3.58,-6.25,5.47,-7.25,33,9.5625,72,14.25,16,0.798157,-0.587524,-0.0718384,-0.112305
-34.1875,-22.25,2,3.6,-6.14,5.42,-6.5625,31.875,12,72.375,14.3125,15.5625,0.796692,-0.589844,-0.074646,-0.108887
-28.125,-24.6875,6.75,3.51,-5.95,5.24,-6.5625,31.875,12,72.6875,14.3125,15.375,0.795166,-0.59198,-0.0756836,-0.107361
-21.875,-27.5,11.75,3.5,-5.94,5.15,-6.5625,31.875,12,73,14.25,15.0625,0.794006,-0.593811,-0.0767822,-0.105347
-15.125,-30.0625,16.75,3.46,-5.91,5.17,-6.5625,31.875,12,73.1875,14.1875,14.75,0.793213,-0.595154,-0.0778198,-0.102783
-8.3125,-31.9375,21.4375,3.38,-5.92,5.2,-6.5625,31.875,12,73.375,14.0625,14.3125,0.792725,-0.59613,-0.0787964,-0.0997925
-1.75,-33.8125,25.125,3.22,-5.82,5.35,-7.6875,30.6875,12.75,73.5,13.9375,13.8125,0.792664,-0.59668,-0.0800781,-0.0960693
4.125,-35.3125,27.5,3.19,-5.72,5.46,-7.6875,30.6875,12.75,73.5625,13.8125,13.25,0.792847,-0.596863,-0.0810547,-0.0924072
8.875,-36.3125,29,3.17,-5.71,5.54,-7.6875,30.6875,12.75,73.5625,13.625,12.6875,0.793274,-0.596741,-0.0820923,-0.088562
12.5625,-36.5,30.0625,3.13,-5.73,5.52,-7.6875,30.6875,12.75,73.5625,13.4375,12.125,0.793884,-0.596375,-0.0831299,-0.0845947
15.8125,-36.5,31.1875,3.12,-5.68,5.46,-7.6875,30.6875,12.75,73.5,13.25,11.5625,0.794678,-0.595764,-0.0841064,-0.0805664
19.0625,-36,31.5,3.1,-5.63,5.45,-6.5625,31.5,13.1875,73.4375,13.0625,10.8125,0.795654,-0.594849,-0.0859375,-0.0753784
22.1875,-34.5625,31.875,3.06,-5.55,5.43,-6.5625,31.5,13.1875,72.5625,13.125,10.4375,0.800293,-0.588501,-0.0884399,-0.0734863
25,-32.375,31.3125,2.96,-5.5,5.49,-6.5625,31.5,13.1875,71.625,13.25,10.125,0.804932,-0.582031,-0.0908813,-0.0716553
27.75,-29.5625,30.0625,2.87,-5.54,5.53,-6.5625,31.5,13.1875,70.75,13.3125,9.8125,0.80957,-0.575378,-0.0930176,-0.0698853
31.25,-27.375,28.1875,2.85,-5.62,5.48,-6.5625,31.5,13.1875,69.8125,13.4375,9.5625,0.814209,-0.568604,-0.0950928,-0.0681763
36,-25.5625,25.5,2.88,-5.62,5.44,-6.1875,31.5,13.5625,68.875,13.5,9.25,0.818909,-0.561707,-0.097229,-0.0665283
41.375,-22.625,22.8125,2.89,-5.58,5.44,-6.1875,31.5,13.5625,67.875,13.625,9,0.823669,-0.554504,-0.0992432,-0.0652466
47.5625,-19.125,19.8125,2.98,-5.63,5.54,-6.1875,31.5,13.5625,66.875,13.75,8.8125,0.828491,-0.546997,-0.101257,-0.064209
53.75,-15.125,16.4375,3.12,-5.75,5.72,-6.1875,31.5,13.5625,65.8125,13.875,8.6875,0.833496,-0.539062,-0.10321,-0.0634766
58.875,-10.6875,13.875,3.4,-5.91,6.17,-6.1875,31.5,13.5625,65.25,13.8125,8.375,0.836121,-0.535095,-0.103699,-0.0615234
62.375,-6.3125,12.0625,3.5,-6,6.24,-4.375,31.875,12.75,64.6875,13.75,7.875,0.83905,-0.53064,-0.10498,-0.0581055
64.3125,-2.375,10.9375,3.52,-6.07,6.25,-4.375,31.875,12.75,64.0625,13.625,7.6875,0.84198,-0.526184,-0.10498,-0.0567017
66.125,1.125,9.6875,3.48,-6.18,6.22,-4.375,31.875,12.75,63.4375,13.5625,7.5,0.844971,-0.521545,-0.104736,-0.0554199
68.9375,3.3125,7.4375,3.44,-6.48,6.22,-4.375,31.875,12.75,62.75,13.5,7.3125,0.848022,-0.516663,-0.104492,-0.0544434
72.75,4.3125,4,3.51,-6.5,6.28,-4.375,31.875,12.75,62.0625,13.4375,7.1875,0.851257,-0.511475,-0.10437,-0.0537109
76.75,5.375,0.5,3.57,-6.48,6.3,-4,33,11.5625,61.3125,13.375,6.875,0.854736,-0.505676,-0.105347,-0.0515137
80.375,7.0625,-3.4375,3.6,-6.48,6.4,-4,33,11.5625,60.5,13.375,6.8125,0.858154,-0.499817,-0.105347,-0.0513916
83.5,8.3125,-7.1875,3.63,-6.66,6.59,-4,33,11.5625,59.6875,13.4375,6.8125,0.861755,-0.493652,-0.105408,-0.0515137
86.625,9.3125,-11.5625,3.68,-6.87,6.88,-4,33,11.5625,58.8125,13.4375,6.8125,0.865356,-0.487183,-0.105591,-0.0519409
89.375,9.9375,-16.5,3.64,-7.08,7.03,-4,33,11.5625,57.9375,13.5625,6.9375,0.869019,-0.480408,-0.105896,-0.0527954
91.9375,8.8125,-22.3125,3.64,-7.33,7.26,-4,33.6875,8.6875,57,13.6875,6.875,0.872803,-0.473267,-0.107361,-0.0525513
94.3125,6.625,-28.0625,3.74,-7.36,7.35,-4,33.6875,8.6875,56,13.875,7,0.876465,-0.466003,-0.108398,-0.0540161
96.25,4.5625,-33.125,3.85,-7.42,7.45,-4,33.6875,8.6875,55,14.125,7.25,0.880127,-0.458496,-0.109802,-0.0557861
97.625,3.25,-37.125,3.98,-7.55,7.57,-4,33.6875,8.6875,54,14.375,7.4375,0.883728,-0.450867,-0.11145,-0.0577393
98.625,2.25,-40.125,3.93,-7.57,7.51,-4,33.6875,8.6875,53,14.6875,7.6875,0.887268,-0.443115,-0.113281,-0.0598755
99.625,1.5625,-42.6875,3.84,-7.59,7.42,-4,33,5.0625,51.9375,15,7.6875,0.890869,-0.434998,-0.11615,-0.0603027
102.062,0.4375,-45.5625,3.74,-7.62,7.31,-4,33,5.0625,50.875,15.375,8,0.894348,-0.426819,-0.118347,-0.0627441
105.875,-0.8125,-49.4375,3.65,-7.73,7.3,-4,33,5.0625,49.8125,15.75,8.3125,0.897888,-0.418335,-0.120728,-0.0653687
110.688,-2.8125,-53.9375,3.66,-7.8,7.42,-4,33,5.0625,48.625,16.125,8.625,0.901428,-0.409363,-0.123474,-0.0682373
115.062,-5.125,-58.3125,3.73,-7.83,7.54,-4,33,5.0625,47.4375,16.5625,9,0.904907,-0.399963,-0.126526,-0.0712891
118.688,-7.625,-62.125,3.81,-7.88,7.69,-6.1875,34.0625,1.875,46.1875,17.0625,9.3125,0.908447,-0.390198,-0.130066,-0.0742188
121,-9.875,-65.125,3.89,-7.92,7.9,-6.1875,34.0625,1.875,44.875,17.625,9.6875,0.911865,-0.380249,-0.133728,-0.0775757
122.25,-11.9375,-67.125,3.94,-7.96,7.94,-6.1875,34.0625,1.875,43.5625,18.125,10.0625,0.915161,-0.370117,-0.137634,-0.0809326
122.875,-14.5,-68.4375,4,-8.02,7.92,-6.1875,34.0625,1.875,42.25,18.6875,10.4375,0.918274,-0.359924,-0.141724,-0.0843506
123.25,-16.875,-68.625,3.98,-8.02,7.78,-6.1875,34.0625,1.875,40.9375,19.25,10.8125,0.921265,-0.349609,-0.145935,-0.0877075
123.688,-19.0625,-68.4375,3.96,-7.97,7.69,-7.25,33.6875,-2.0625,39.5625,19.8125,11.125,0.924194,-0.339111,-0.150696,-0.0900879
124.25,-21.25,-67.5625,3.89,-7.87,7.63,-7.25,33.6875,-2.0625,38.25,20.375,11.4375,0.926941,-0.328735,-0.155212,-0.0932007
124.812,-22.625,-66.9375,3.82,-7.77,7.5,-7.25,33.6875,-2.0625,36.875,20.9375,11.75,0.929504,-0.318237,-0.15979,-0.0961304
125.125,-23.375,-66.625,3.66,-7.64,7.36,-7.25,33.6875,-2.0625,35.5,21.5,12.125,0.931946,-0.307678,-0.164429,-0.0990601
125.125,-24.1875,-66.625,3.62,-7.56,7.28,-7.25,33.6875,-2.0625,34.1875,22.0625,12.4375,0.934204,-0.297058,-0.169128,-0.101929
124.625,-24.3125,-66.5625,3.61,-7.47,7.23,-8.75,31.875,-4.5625,32.8125,22.625,12.625,0.936462,-0.286316,-0.174011,-0.104004
123.375,-24.375,-66.375,3.55,-7.4,7.2,-8.75,31.875,-4.5625,31.4375,23.1875,12.9375,0.938416,-0.275757,-0.178589,-0.106812
121.312,-24.625,-65.6875,3.43,-7.31,7.15,-8.75,31.875,-4.5625,30.0625,23.6875,13.25,0.940247,-0.265381,-0.183167,-0.109619
118.25,-24.8125,-65.375,3.41,-7.24,7.16,-8.75,31.875,-4.5625,28.6875,24.25,13.5625,0.941833,-0.255188,-0.187683,-0.112427
114.125,-24.8125,-64.5625,3.42,-7.2,7.14,-8.75,31.875,-4.5625,27.4375,24.75,13.875,0.943237,-0.2453,-0.192139,-0.115234
108.812,-24.1875,-63,3.44,-7.05,7.04,-10.25,31.0625,-8.25,26.125,25.25,13.9375,0.944641,-0.235413,-0.196899,-0.115967
102.625,-23.5,-60.3125,3.45,-6.97,6.95,-10.25,31.0625,-8.25,24.9375,25.6875,14.25,0.945679,-0.22644,-0.200989,-0.118591
95.8125,-22.3125,-56.875,3.41,-6.89,6.85,-10.25,31.0625,-8.25,23.8125,26.125,14.5625,0.946472,-0.218018,-0.204834,-0.121094
88.6875,-20.75,-53,3.35,-6.75,6.76,-10.25,31.0625,-8.25,22.75,26.5,14.8125,0.947205,-0.210205,-0.208374,-0.123413
81.125,-19.25,-49.375,3.18,-6.62,6.62,-10.25,31.0625,-8.25,21.8125,26.875,15.0625,0.947754,-0.203064,-0.211609,-0.12561
73.5625,-17.4375,-45.75,3.17,-6.52,6.58,-11.75,30.5,-11,20.9375,27.1875,14.9375,0.948608,-0.195801,-0.21521,-0.124451
65.625,-15.125,-42.25,3.11,-6.44,6.46,-11.75,30.5,-11,20.125,27.4375,15.125,0.948975,-0.189941,-0.217834,-0.126404
57.875,-12.5,-39,2.9,-6.17,6.22,-11.75,30.5,-11,19.375,27.6875,15.375,0.949219,-0.184692,-0.220093,-0.128296
50.5625,-9.875,-35.875,2.79,-6.09,6.1,-11.75,30.5,-11,18.75,27.875,15.5625,0.949402,-0.180054,-0.221985,-0.130066
43.9375,-7.3125,-33.5,2.74,-6.06,5.99,-11.75,30.5,-11,18.125,28.0625,15.75,0.949585,-0.176025,-0.223572,-0.131836
43.9375,-4.5625,-31.5625,2.74,-5.95,5.91,-13,28.1875,-11.5,17.625,28.1875,15.6875,0.950012,-0.171814,-0.22522,-0.131226
38.125,-1.625,-29.5625,2.73,-5.79,5.84,-13,28.1875,-11.5,17.1875,28.3125,15.875,0.950134,-0.168701,-0.226135,-0.132996
26.9375,1.625,-27.125,2.77,-5.81,5.86,-13,28.1875,-11.5,16.75,28.375,16.125,0.950195,-0.166016,-0.226685,-0.134644
20.875,4.375,-24.5625,2.85,-5.83,5.95,-13,28.1875,-11.5,16.4375,28.375,16.3125,0.950317,-0.163757,-0.226929,-0.136292
14.0625,7.4375,-21.25,2.88,-5.79,6.08,-13,28.1875,-11.5,16.1875,28.375,16.5,0.950378,-0.16217,-0.226807,-0.137817
14.0625,9.875,-17.75,2.82,-5.76,6.11,-13.6875,27.375,-13.0625,16,28.3125,16.3125,0.950867,-0.160522,-0.226807,-0.136536
6.4375,11.6875,-14.375,2.84,-5.81,6.11,-13.6875,27.375,-13.0625,16.8125,28.0625,16.25,0.950623,-0.166443,-0.223877,-0.135986
-8.9375,12.875,-11.0625,2.9,-5.79,6.09,-13.6875,27.375,-13.0625,17.625,27.75,16.1875,0.950256,-0.172791,-0.220886,-0.135376
-16.1875,14.0625,-7.625,2.98,-5.62,6.09,-13.6875,27.375,-13.0625,18.5625,27.5,16.125,0.949829,-0.179504,-0.217773,-0.134827
-23.25,15.5,-3.875,2.95,-5.57,6.04,-13.6875,27.375,-13.0625,19.4375,27.1875,16.0625,0.94928,-0.186584,-0.214539,-0.134155
-23.25,17,-0.3125,2.92,-5.63,6.03,-13.6875,26.5625,-13.0625,20.4375,26.875,15.625,0.949036,-0.19342,-0.211731,-0.130554
-35.5,18,3.0625,3,-5.66,6.1,-13.6875,26.5625,-13.0625,21.4375,26.5625,15.5625,0.948303,-0.201172,-0.208252,-0.129761
-40.5625,19.3125,6.125,3.02,-5.61,6.17,-13.6875,26.5625,-13.0625,22.5,26.1875,15.4375,0.94751,-0.209045,-0.204651,-0.128906
-45.75,20.75,9.3125,3.01,-5.62,6.21,-13.6875,26.5625,-13.0625,23.5,25.8125,15.375,0.946655,-0.217102,-0.200928,-0.127991
-50.75,21.875,11.875,3,-5.69,6.25,-13.6875,26.5625,-13.0625,24.5625,25.4375,15.25,0.945679,-0.225281,-0.197083,-0.127014
-50.75,22.4375,14.25,3.08,-5.83,6.5,-14.0625,26.5625,-12.25,25.125,25.1875,15.25,0.94519,-0.229614,-0.194519,-0.12677
-59.25,22.5625,16.25,3.2,-5.87,6.6,-14.0625,26.5625,-12.25,25.75,24.9375,15.25,0.94458,-0.234375,-0.191772,-0.126831
-63.75,22.5625,18.5,3.24,-5.88,6.62,-14.0625,26.5625,-12.25,26.375,24.625,15.25,0.943848,-0.239502,-0.188904,-0.126831
-68.1875,22.5625,21.5,3.31,-5.91,6.64,-14.0625,26.5625,-12.25,27.0625,24.375,15.25,0.943054,-0.244995,-0.185974,-0.126709
-72.4375,21.9375,24.75,3.42,-6.1,6.69,-14.0625,26.5625,-12.25,27.8125,24.0625,15.25,0.942139,-0.250916,-0.182922,-0.126282
-75.4375,21,28.5,3.52,-6.19,6.73,-13.6875,26.1875,-11.5,28.625,23.75,15.1875,0.941162,-0.257141,-0.17981,-0.125671
-77.8125,19.375,32.75,3.55,-6.32,6.78,-13.6875,26.1875,-11.5,29.4375,23.4375,15.0625,0.940063,-0.263611,-0.176758,-0.124634
-79.5625,17.5,37.3125,3.7,-6.41,6.9,-13.6875,26.1875,-11.5,30.3125,23.125,14.9375,0.938904,-0.270325,-0.173645,-0.12323
-79.5625,15.75,42,3.74,-6.46,7.01,-13.6875,26.1875,-11.5,31.25,22.75,14.75,0.937683,-0.277222,-0.170593,-0.12146
-81.0625,14.1875,47.25,3.82,-6.52,7.09,-13.6875,26.1875,-11.5,32.1875,22.375,14.5,0.936462,-0.284241,-0.167542,-0.119263
-83.6875,12.75,52.625,3.91,-6.64,7.19,-13.375,28.875,-10.6875,33.125,22,14.1875,0.93512,-0.291504,-0.164429,-0.116455
-84.875,11.875,58.125,3.91,-6.74,7.26,-13.375,28.875,-10.6875,34.125,21.625,13.8125,0.933716,-0.298828,-0.161194,-0.113342
-84.875,10.8125,63.3125,3.85,-6.77,7.24,-13.375,28.875,-10.6875,35.125,21.1875,13.375,0.932312,-0.306335,-0.157898,-0.109802
-85.625,9.5,67.6875,3.8,-6.82,7.29,-13.375,28.875,-10.6875,36.125,20.75,12.9375,0.930786,-0.313904,-0.154602,-0.105835
-85.875,8.4375,70.9375,3.77,-6.91,7.37,-13.375,28.875,-10.6875,37.125,20.25,12.4375,0.929199,-0.321472,-0.151306,-0.101624
-85.5,8.4375,70.9375,3.77,-6.98,7.6,-12.25,31.0625,-8.6875,38.125,19.75,11.875,0.927612,-0.328979,-0.148071,-0.0969849
-84.6875,7.125,73.0625,3.75,-6.99,7.65,-12.25,31.0625,-8.6875,39.125,19.25,11.375,0.925903,-0.336426,-0.144836,-0.0923462
-84.25,5.125,74.8125,3.69,-7.02,7.67,-12.25,31.0625,-8.6875,40.125,18.75,10.8125,0.924133,-0.343872,-0.141663,-0.0877075
-84.375,4.6875,74.6875,3.65,-6.99,7.72,-12.25,31.0625,-8.6875,41.125,18.25,10.25,0.922241,-0.351318,-0.138489,-0.0830078
-84.5625,4.375,73.9375,3.65,-7.01,7.71,-12.25,31.0625,-8.6875,42.125,17.75,9.6875,0.920227,-0.358765,-0.135376,-0.0783691
-84.625,4.375,73.9375,3.65,-7.07,7.68,-10.375,31.5,-5.875,43.0625,17.25,9.125,0.918213,-0.366089,-0.132263,-0.0737305
-84.1875,4.25,72.6875,3.62,-7.05,7.56,-10.375,31.5,-5.875,44.0625,16.75,8.625,0.916077,-0.37323,-0.129211,-0.0693359
-82.75,4.25,68.4375,3.63,-6.97,7.53,-10.375,31.5,-5.875,44.9375,16.25,8.125,0.91394,-0.380127,-0.126282,-0.0650635
-80.5,4.375,66.125,3.68,-6.95,7.54,-10.375,31.5,-5.875,45.8125,15.75,7.625,0.911865,-0.386719,-0.123474,-0.0609741
-77.6875,5.0625,64,3.64,-6.87,7.46,-10.375,31.5,-5.875,46.625,15.3125,7.125,0.90979,-0.392883,-0.12085,-0.0570679
-74.625,5.0625,64,3.64,-6.73,7.32,-7.375,33.375,-3.5,47.375,14.875,6.5625,0.907959,-0.398438,-0.118896,-0.0522461
-71.1875,6.0625,59.625,3.6,-6.62,7.24,-7.375,33.375,-3.5,48.0625,14.4375,6.125,0.906006,-0.404114,-0.116089,-0.048584
-67.25,6.0625,57.3125,3.55,-6.56,7.06,-7.375,33.375,-3.5,48.8125,14,5.6875,0.904114,-0.409485,-0.113403,-0.0449829
-62.75,5,54.9375,3.58,-6.52,6.96,-7.375,33.375,-3.5,49.4375,13.5625,5.25,0.902344,-0.414368,-0.110901,-0.0415649
-57.6875,3.75,52.75,3.65,-6.52,6.78,-7.375,33.375,-3.5,50,13.125,4.8125,0.900757,-0.418823,-0.108582,-0.038147
-51.8125,3.75,52.75,3.65,-6.52,6.73,-6.6875,34.0625,-2.1875,50.5,12.75,4.375,0.899292,-0.422729,-0.106506,-0.034668
-46,2.0625,50.9375,3.67,-6.46,6.72,-6.6875,34.0625,-2.1875,50.9375,12.375,3.9375,0.89801,-0.42627,-0.104675,-0.031189
-40.25,-3.1875,48.875,3.88,-6.41,6.69,-6.6875,34.0625,-2.1875,51.375,12,3.5,0.89679,-0.429382,-0.103088,-0.02771
-35.1875,-5.25,49.4375,3.87,-6.32,6.6,-6.6875,34.0625,-2.1875,51.75,11.6875,3.0625,0.895752,-0.432129,-0.101624,-0.0240479
-30.6875,-8,50.5,3.82,-6.29,6.49,-6.6875,34.0625,-2.1875,52.0625,11.3125,2.5625,0.894775,-0.43457,-0.100342,-0.0201416
-26.625,-8,50.5,3.82,-6.29,6.49,-5.1875,33.6875,-0.1875,52.375,11,2,0.893982,-0.436707,-0.0992432,-0.0160522
-22.5625,-10.875,51.1875,3.8,-6.26,6.47,-5.1875,33.6875,-0.1875,52.625,10.6875,1.5,0.89325,-0.438599,-0.0983276,-0.0117798
-18.4375,-16.875,51.6875,3.65,-6.07,6.29,-5.1875,33.6875,-0.1875,52.875,10.375,0.9375,0.892578,-0.440125,-0.0977173,-0.00738525
-14.5,-20.1875,51.75,3.64,-6.04,6.28,-5.1875,33.6875,-0.1875,53.0625,10.125,0.3125,0.892029,-0.441345,-0.09729,-0.00280762
-10.75,-23.25,51.875,3.66,-5.99,6.31,-5.1875,33.6875,-0.1875,53.1875,9.8125,359.75,0.891602,-0.442322,-0.0971069,0.00189209
-7.25,-23.25,51.875,3.66,-5.99,6.31,-5.1875,33.6875,0.5625,53.3125,9.5625,359.125,0.891174,-0.443115,-0.0971069,0.00671387
-4.625,-26.125,52.5,3.65,-5.88,6.34,-4.0625,33.6875,0.5625,53.4375,9.3125,358.438,0.890808,-0.443665,-0.097229,0.0118408
-2.1875,-31.4375,54.5,3.51,-5.86,6.24,-4.0625,33.6875,0.5625,53.5,9.0625,357.75,0.890503,-0.444092,-0.0975952,0.0170898
0.25,-34.125,55.375,3.54,-5.76,6.43,-4.0625,33.6875,0.5625,53.3125,9.25,357.312,0.891235,-0.44165,-0.100952,0.020874
2.4375,-36.1875,56.3125,3.46,-5.64,6.5,-4.0625,33.6875,0.5625,53,9.4375,356.75,0.89209,-0.438965,-0.10437,0.0248413
4.125,-36.1875,56.3125,3.46,-5.64,6.5,-4.0625,33.6875,0.1875,53.0625,9.1875,356.062,0.891785,-0.439026,-0.105042,0.0305176
4.625,-37.25,56.8125,3.38,-5.51,6.54,-2.5625,33.6875,0.1875,53.125,9,355.312,0.891479,-0.439087,-0.105774,0.0362549
4.4375,-38.625,56,3.21,-5.29,6.38,-2.5625,33.6875,0.1875,53.1875,8.75,354.562,0.891113,-0.439148,-0.106567,0.0419312
4.25,-39,54.875,3.27,-5.28,6.33,-2.5625,33.6875,0.1875,53.25,8.5625,353.875,0.890686,-0.439148,-0.107483,0.0475464
4.4375,-38.125,53.8125,3.27,-5.23,6.32,-2.5625,33.6875,0.1875,53.3125,8.375,353.125,0.89032,-0.439087,-0.108337,0.0531006
5.25,-38.125,53.8125,3.27,-5.23,6.32,-2.5625,33.6875,0.1875,53.3125,8.1875,352.438,0.890015,-0.438843,-0.109009,0.0584106
7.1875,-36.75,53.1875,3.17,-5.19,6.25,-1.5,34.5,1,53.3125,8,351.75,0.889771,-0.438416,-0.109741,0.0637207
9.5625,-35.8125,50.6875,3.16,-4.96,6.32,-1.5,34.5,1,53.25,7.8125,351.125,0.889587,-0.437805,-0.110352,0.0689087
12.0625,-34.1875,48.625,3.11,-4.85,6.35,-1.5,34.5,1,53.1875,7.5625,350.5,0.889526,-0.437012,-0.110901,0.0739136
13.5,-31.9375,46.4375,3.02,-4.75,6.51,-1.5,34.5,1,53.125,7.375,349.875,0.889465,-0.436218,-0.111267,0.0786133
14.5,-29.4375,46.4375,3.02,-4.75,6.51,0.375,34.0625,-0.1875,53,7.25,349.312,0.889465,-0.435242,-0.111694,0.0830688
15.375,-27.625,43.25,3.11,-4.76,6.54,0.375,34.0625,-0.1875,52.9375,7.0625,348.75,0.889526,-0.434265,-0.112061,0.0871582
15.875,-25.875,37,3.14,-4.9,6.73,0.375,34.0625,-0.1875,52.8125,6.9375,348.312,0.889648,-0.433167,-0.112305,0.0909424
16.5,-23.1875,33.875,3.08,-4.93,7.01,0.375,34.0625,-0.1875,52.6875,6.75,347.875,0.889832,-0.432068,-0.112427,0.0944214
17.1875,-20.0625,30.75,2.99,-4.9,7.13,0.375,34.0625,-0.1875,52.5625,6.625,347.438,0.890015,-0.430908,-0.112488,0.0974731
17.4375,-17,30.75,2.99,-4.9,7.13,0.375,34.0625,0.1875,52.4375,6.5,347.312,0.890503,-0.429932,-0.111633,0.0985107
17.25,-14.1875,26.5625,2.97,-4.86,7.19,0.375,34.0625,0.1875,52.3125,6.4375,347.062,0.890808,-0.428772,-0.111572,0.100708
16.9375,-10.875,15.0625,2.77,-4.94,7.31,0.375,34.0625,0.1875,52.125,6.375,346.875,0.891235,-0.427551,-0.111389,0.102234
17.25,-7.5,8.0625,2.81,-4.98,7.33,0.375,34.0625,0.1875,51.9375,6.3125,346.75,0.891785,-0.426208,-0.111328,0.10321
18.5,-5.0625,0.375,2.89,-5.03,7.42,0.375,34.0625,0.1875,51.75,6.3125,346.75,0.892517,-0.424622,-0.11145,0.103577
20.4375,-3.75,0.375,2.89,-5.03,7.42,0.375,34.0625,0.1875,51.5625,6.4375,346.75,0.893433,-0.422852,-0.111389,0.102783
22.9375,-2.4375,-6.5,3.16,-5.1,7.66,1.5,35.1875,-1.875,51.3125,6.5,346.875,0.894409,-0.420837,-0.111755,0.102051
24.8125,-1.3125,-18.125,3.28,-5.02,7.75,1.5,35.1875,-1.875,51.0625,6.625,347.125,0.895508,-0.418701,-0.112244,0.100952
26,-0.8125,-22.8125,3.32,-5.03,7.77,1.5,35.1875,-1.875,50.75,6.8125,347.312,0.896606,-0.416443,-0.112854,0.0995483
26.875,-0.9375,-26.875,3.46,-5.16,7.84,1.5,35.1875,-1.875,50.5,7.0625,347.562,0.897827,-0.414062,-0.113708,0.0978394
27.625,-1.5625,-26.875,3.46,-5.16,7.84,1.5,35.1875,-1.875,50.1875,7.25,347.812,0.899048,-0.41156,-0.114624,0.0957642
29.375,-2,-30.3125,3.46,-5.24,7.94,2.25,34,-1.875,49.8125,7.5625,348.062,0.900391,-0.408752,-0.115723,0.093689
31.875,-2.8125,-35.9375,3.68,-5.54,8.45,2.25,34,-1.875,49.4375,7.8125,348.375,0.901855,-0.405701,-0.117004,0.0914307
35.5625,-4.25,-38.125,3.79,-5.59,8.56,2.25,34,-1.875,49.0625,8.125,348.688,0.903442,-0.402222,-0.118469,0.0891113
39.625,-5.8125,-40.125,3.91,-5.59,8.66,2.25,34,-1.875,48.5625,8.5,349,0.905151,-0.398376,-0.120117,0.086792
44.4375,-8.25,-40.125,3.91,-5.59,8.66,2.25,34,-1.875,48.0625,8.875,349,0.907166,-0.394348,-0.121155,0.0825195
49.4375,-10.875,-41.375,4.01,-5.57,8.71,0.375,33.25,-2.1875,47.5,9.25,349.562,0.90918,-0.389648,-0.12323,0.0802612
54.625,-13.625,-43.625,4.3,-5.6,8.87,0.375,33.25,-2.1875,46.9375,9.6875,350.188,0.911194,-0.38446,-0.125549,0.078125
59.6875,-17.0625,-45.0625,4.36,-5.66,9.12,0.375,33.25,-2.1875,46.25,10.125,350.438,0.913391,-0.378845,-0.128174,0.0759888
64.8125,-20.625,-47.5625,4.54,-6.1,9.83,0.375,33.25,-2.1875,45.5625,10.625,350.75,0.915649,-0.372803,-0.131165,0.0738525
69.75,-24.5625,-47.5625,4.54,-6.1,9.83,0.375,33.25,-2.1875,45.5625,10.625,350.75,0.915649,-0.366272,-0.134521,0.0714111
74.8125,-30,-51.0625,4.68,-6.33,10.2,0,34.75,-4.25,44.8125,11.1875,351.062,0.917969,-0.359314,-0.13855,0.0690918
78.75,-36.5625,-59.9375,4.97,-6.66,10.68,0,34.75,-4.25,43.1875,12.5,351.688,0.922546,-0.35199,-0.14325,0.0667114
81.4375,-43.3125,-64.6875,5.36,-6.86,10.85,0,34.75,-4.25,42.375,13.3125,352,0.924805,-0.34436,-0.148621,0.064209
84.1875,-50.25,-69.5625,5.48,-6.81,10.91,0,34.75,-4.25,41.5,14.1875,352.375,0.926941,-0.336304,-0.154663,0.0615234
87.375,-57.6875,-69.5625,5.48,-6.81,10.91,0,34.75,-4.25,40.5625,15.125,352.375,0.929077,-0.328064,-0.160889,0.0571899
91.875,-65.25,-74.625,5.56,-6.74,10.87,-2.5625,33.25,-6.25,39.5625,15.125,352.938,0.931152,-0.318848,-0.168335,0.0541382
98.3125,-72.6875,-88.4375,6.42,-7.23,11.18,-2.5625,33.25,-6.25,38.5,17.3125,353.75,0.933228,-0.308899,-0.176514,0.0508423
106,-79.625,-94.1875,6.8,-7.44,11.31,-2.5625,33.25,-6.25,37.3125,18.5,354.188,0.935242,-0.298035,-0.18512,0.0473022
114.875,-85,-98.1875,7.22,-7.65,11.45,-2.5625,33.25,-6.25,36,19.8125,354.625,0.937195,-0.286316,-0.194214,0.0437622
123.688,-90.1875,-98.1875,7.22,-7.65,11.45,-2.5625,33.25,-6.25,36,19.8125,354.625,0.937195,-0.286316,-0.203857,0.0402832
130.688,-97.5,-100.25,7.85,-7.82,11.64,-4,33.25,-9.5,34.6875,21.125,355.062,0.939026,-0.273926,-0.214172,0.0371094
135.688,-106.875,-100.125,8.22,-7.68,11.4,-4,33.25,-9.5,31.8125,24,355.812,0.94165,-0.247742,-0.225342,0.0343018
139.438,-118.938,-99.4375,8.49,-7.63,11.43,-4,33.25,-9.5,30.375,25.625,356.062,0.9422,-0.23407,-0.237549,0.0318604
142.312,-133.062,-98.1875,8.67,-7.54,11.35,-4,33.25,-9.5,28.9375,27.3125,356.312,0.9422,-0.220276,-0.250732,0.0298462
143.438,-146.938,-98.1875,8.67,-7.54,11.35,-4,33.25,-9.5,28.9375,27.3125,356.312,0.941528,-0.206482,-0.264709,0.0281982
142.625,-158,-95.875,8.63,-7.43,11.27,-7,31.375,-12.375,27.5,29.125,356.562,0.940308,-0.192749,-0.279175,0.0267334
140.375,-166,-93.8125,8.25,-7.05,10.66,-7,31.375,-12.375,24.6875,32.8125,356.875,0.938538,-0.179199,-0.293884,0.0253906
137.562,-170.75,-93,8.05,-6.84,10.27,-7,31.375,-12.375,23.3125,34.75,357.062,0.936279,-0.165771,-0.308655,0.0238647
134.688,-173.125,-93.8125,7.93,-6.62,9.83,-7,31.375,-12.375,21.875,36.625,357.25,0.933655,-0.152405,-0.323425,0.0221558
132.375,-173.75,-96.625,7.93,-6.62,9.83,-7,31.375,-12.375,21.875,36.625,357.25,0.933655,-0.152405,-0.323425,0.0221558
131,-175.188,-101.75,7.94,-6.41,9.46,-10.25,28.75,-14,20.375,38.5625,357.5,0.930542,-0.138977,-0.338257,0.0172729
129.875,-177.312,-107.625,7.89,-5.52,8.71,-10.25,28.75,-14,17.0625,42.5,358.188,0.922974,-0.111694,-0.368042,0.0141602
128,-178.75,-112.375,7.64,-5.26,8.52,-10.25,28.75,-14,15.3125,44.5,358.625,0.918518,-0.0981445,-0.382935,0.0106812
124.188,-179.438,-116.25,6.93,-4.94,8.05,-10.25,28.75,-14,13.4375,46.4375,359.125,0.913635,-0.0849609,-0.397583,0.00671387
117.812,-178.562,-118.75,6.93,-4.94,8.05,-10.25,28.75,-14,13.4375,46.4375,359.125,0.913635,-0.0849609,-0.397583,0.00231934
109.688,-175.875,-120.938,6.74,-4.79,7.82,-13.25,26.875,-13.5625,11.5625,48.375,359.688,0.908386,-0.0723267,-0.411865,-0.00244141
101.875,-171.438,-121.875,6.69,-4.39,7.31,-13.25,26.875,-13.5625,7.5625,52,0.9375,0.897156,-0.0487671,-0.438904,-0.00738525
94.1875,-166.375,-120.438,6.63,-3.7,6.46,-13.25,26.875,-13.5625,5.4375,53.6875,1.5625,0.891296,-0.0379639,-0.45166,-0.0122681
86.9375,-162.375,-115.875,6.77,-3.51,6.07,-13.25,26.875,-13.5625,3.375,55.3125,2.125,0.885193,-0.027832,-0.464111,-0.0167847
81.4375,-160.438,-108.125,6.77,-3.51,6.07,-13.25,26.875,-13.5625,3.375,55.3125,2.125,0.885193,-0.027832,-0.476013,-0.0205078
78.75,-156.062,-96.5,6.67,-3.23,5.73,-18.25,23.375,-14.25,1.3125,56.875,2.625,0.878967,-0.0183716,-0.487122,-0.0232544
79,-146.375,-82.3125,5.34,-2.29,5.38,-18.25,23.375,-14.25,-2.5625,59.5625,3.25,0.86731,-0.000976562,-0.497131,-0.0248413
80.75,-133.25,-68.25,4.67,-1.92,5.35,-18.25,23.375,-14.25,-4.4375,60.6875,3.375,0.862122,0.00714111,-0.506042,-0.0254517
82.375,-120.062,-55.875,4.34,-1.6,5.09,-18.25,23.375,-14.25,-6.1875,61.6875,3.375,0.8573,0.0148926,-0.513977,-0.0253296
82.1875,-107.375,-45.625,4.34,-1.6,5.09,-18.25,23.375,-14.25,-6.1875,61.6875,3.375,0.8573,0.0148926,-0.513977,-0.0253296
80.5,-94.3125,-36.5625,3.67,-0.87,4.39,-19.375,21.875,-12.5625,-7.875,62.5625,3.25,0.852966,0.0220947,-0.520874,-0.0245972
78.8125,-75.1875,-28.625,3.52,-0.19,3.1,-19.375,21.875,-12.5625,-10.75,63.6875,2.875,0.846863,0.0353394,-0.530151,-0.0216675
77.6875,-51.1875,-23,3.58,-0.07,2.97,-19.375,21.875,-12.5625,-11.9375,63.8125,2.5625,0.845825,0.0418091,-0.531494,-0.0193481
80.125,-17.6875,-16.875,2.6,0.48,3.21,-19.375,21.875,-12.5625,-12.75,63.5,2.125,0.846802,0.0483398,-0.52948,-0.0158691
86.25,29.4375,-7.5,2.6,0.48,3.21,-19.375,21.875,-12.5625,-12.75,63.5,2.125,0.846802,0.0483398,-0.52948,-0.0158691
86.9375,75.4375,3.3125,3.01,-0.02,2.82,-22.1875,19.5,-11.6875,-13.25,62.8125,1.5,0.849792,0.0545654,-0.524231,-0.0114746
76.1875,99.1875,16.5,3.06,0.16,3.44,-22.1875,19.5,-11.6875,-12.8125,60.8125,0.0625,0.858765,0.062561,-0.508545,-0.000671387
63.3125,122,32.8125,2.18,-0.03,1.48,-22.1875,19.5,-11.6875,-12,59.4375,359.188,0.865173,0.0646973,-0.497314,0.00585938
56.25,158.062,45.75,1.52,-0.06,0.25,-22.1875,19.5,-11.6875,-11.125,57.6875,358.188,0.872803,0.0665283,-0.483276,0.0133667
57.875,194.312,54.1875,1.52,-0.06,0.25,-22.1875,19.5,-11.6875,-11.125,57.6875,358.188,0.872803,0.0665283,-0.483276,0.0133667
73.1875,222.125,58.5625,0.5,0.38,-2.88,-21.0625,18.1875,-15.6875,-10.375,55.6875,357.125,0.881226,0.0692749,-0.467041,0.0219116
128.562,232.375,56.875,0.25,1.31,0.88,-21.0625,18.1875,-15.6875,-10.875,51.5,354.062,0.896179,0.0877075,-0.432495,0.0460815
194.25,226.188,62.625,0.16,1.05,1.52,-21.0625,18.1875,-15.6875,-11.75,49.625,352.188,0.901672,0.101562,-0.415771,0.0613403
228.375,213.438,70.5,-0.47,0.87,1.25,-21.0625,18.1875,-15.6875,-12.75,47.9375,350.25,0.905823,0.115601,-0.400269,0.0769043
232.812,194.375,75.5,-0.47,0.87,1.25,-21.0625,18.1875,-15.6875,-12.75,47.9375,350.25,0.905823,0.115601,-0.400269,0.0769043
227.938,160.438,80.875,0.72,1.5,7.8,-17.6875,17.875,-21.1875,-13.75,46.625,348.375,0.908203,0.129211,-0.387207,0.0923462
214.312,114.25,89.25,-0.25,2.29,7.67,-17.6875,17.875,-21.1875,-15.25,45.3125,344.625,0.907898,0.151917,-0.371094,0.122253
184.938,78.625,104.75,1.32,2.31,7.53,-17.6875,17.875,-21.1875,-15.4375,45.0625,342.75,0.906311,0.159485,-0.366577,0.137024
155.562,57.3125,119.25,3.71,1.94,8.71,-17.6875,17.875,-21.1875,-15.4375,44.9375,340.938,0.904358,0.165039,-0.363159,0.15155
132.125,46.75,128.938,3.71,1.94,8.71,-17.6875,17.875,-21.1875,-15.4375,44.9375,340.938,0.904358,0.165039,-0.363159,0.15155
108.188,44.6875,140.5,5.79,1.42,10.46,-14.6875,15.25,-26.0625,-15.0625,44.875,339.062,0.902344,0.168396,-0.360291,0.16626
70,40.875,158.688,8.7,0.35,11.55,-14.6875,15.25,-26.0625,-12.5,45,335.375,0.898071,0.16333,-0.358398,0.195801
13.875,30.625,183.25,8.29,0.94,10,-14.6875,15.25,-26.0625,-9.9375,45.25,333.5,0.895569,0.152771,-0.360962,0.21051
-50.9375,15.5625,212,8.29,1.52,8.32,-14.6875,15.25,-26.0625,-6.5625,45.5625,331.625,0.892578,0.137268,-0.365479,0.225464
-106.562,4.625,240.5,7.07,1.52,8.32,-14.6875,15.25,-26.0625,-6.5625,45.5625,331.625,0.892578,0.137268,-0.365479,0.225464
-140.812,5.1875,263.75,5.88,1.53,5.22,-11.375,14.5625,-28.0625,-2.5625,45.6875,329.625,0.889099,0.118408,-0.370728,0.240967
-154.812,18,277.438,6.22,0.76,3.73,-11.375,14.5625,-28.0625,5.875,45,325.438,0.881287,0.0761719,-0.377625,0.273743
-153.688,41.625,285.375,6.38,0.35,2.77,-11.375,14.5625,-28.0625,9.9375,43.9375,323.25,0.877258,0.0543823,-0.377808,0.291077
-147.312,66,291.25,6.36,-0.9,0.87,-11.375,14.5625,-28.0625,13.8125,42.625,321.062,0.872925,0.0324097,-0.376465,0.308533
-142.375,81.25,294.125,5.62,-0.9,0.87,-11.375,14.5625,-28.0625,13.8125,42.625,321.062,0.872925,0.0324097,-0.376465,0.308533
-135.625,91.6875,291.688,5.03,-1.89,0.96,-8,18.6875,-26.375,17.3125,41,318.812,0.868286,0.0107422,-0.373901,0.325867
-125.562,96.75,280.438,3.85,-3.47,1.69,-8,18.6875,-26.375,23.125,37.5,314.75,0.858398,-0.0291138,-0.366821,0.357422
-115.875,90.25,257.875,2.33,-3.7,2.91,-8,18.6875,-26.375,25.375,35.9375,313.125,0.853699,-0.0457764,-0.363831,0.369812
-104.812,76.5625,219.5,0.93,-3.7,3.95,-8,18.6875,-26.375,27.0625,34.6875,311.938,0.849976,-0.0593262,-0.36145,0.378662
-90.25,61.9375,164.875,1.72,-3.7,3.95,-8,18.6875,-26.375,27.0625,34.6875,311.938,0.849976,-0.0593262,-0.36145,0.378662
-73.3125,46.125,106.938,2.47,-3.81,5.39,-2.375,24,-25.0625,28.25,33.8125,311.25,0.847534,-0.0693359,-0.359924,0.38385
-63.4375,21.875,53.25,6.13,-4.3,7.74,-2.375,24,-25.0625,29.8125,33.375,311.062,0.845154,-0.0809326,-0.362427,0.38446
-64.125,-4.25,10.9375,7.83,-4.5,8.2,-2.375,24,-25.0625,30.5,33.625,311.375,0.844482,-0.0847778,-0.366455,0.381287
-70.75,-22.875,-16,9.22,-4.78,8.68,-2.375,24,-25.0625,31.1875,34.0625,311.812,0.84375,-0.0884399,-0.371704,0.376953
-80.0625,-34,-29.4375,10.26,-4.78,8.68,-2.375,24,-25.0625,31.1875,34.0625,311.812,0.84375,-0.0884399,-0.371704,0.376953
-90.3125,-39.875,-33.3125,11.4,-5.1,9.27,-0.25,24.6875,-22.6875,32.0625,34.5625,312.312,0.842896,-0.0925903,-0.377625,0.372009
-100.812,-40.375,-33.0625,11.74,-5.26,10,-0.25,24.6875,-22.6875,34,35.5,313.5,0.840698,-0.10321,-0.390076,0.361145
-111.312,-35,-31.625,11.96,-5.45,10.16,-0.25,24.6875,-22.6875,35.125,35.875,314.125,0.839661,-0.110168,-0.395935,0.355103
-122.625,-25.875,-30.5625,11.93,-5.63,9.74,-0.25,24.6875,-22.6875,36.3125,36.1875,314.812,0.838806,-0.118164,-0.401184,0.348572
-133.188,-13.875,-30.6875,11.63,-5.63,9.74,-0.25,24.6875,-22.6875,36.3125,36.1875,314.812,0.838806,-0.118164,-0.401184,0.348572
-139.812,-2.5625,-31.625,11.06,-5.76,9.1,-0.875,25.6875,-21,37.4375,36.375,315.625,0.838196,-0.126892,-0.405762,0.341614
-140.75,4.6875,-33.875,10.24,-6.1,8.57,-0.875,25.6875,-21,39.6875,36.75,317.375,0.837402,-0.144226,-0.413818,0.32666
-136.875,3.875,-40.0625,8.44,-6.06,8.72,-0.875,25.6875,-21,40.75,37.125,318.312,0.836853,-0.151489,-0.418579,0.318542
-131.375,-7.6875,-51,8.2,-5.99,9.08,-0.875,25.6875,-21,41.6875,37.75,319.312,0.83606,-0.157166,-0.424683,0.309692
-124.438,-27.0625,-67.4375,8.51,-5.99,9.08,-0.875,25.6875,-21,41.6875,37.75,319.312,0.83606,-0.157166,-0.424683,0.309692
-117.125,-44.75,-86.875,9.02,-5.84,9.48,-0.875,27.5,-17.375,42.5625,38.625,320.438,0.835144,-0.161133,-0.432007,0.299927
-110.562,-55.875,-105.312,10.75,-5.97,9.64,-0.875,27.5,-17.375,44,40.9375,323.125,0.833252,-0.165161,-0.448608,0.277771
-105.062,-60.875,-118.438,11.56,-6.31,9.37,-0.875,27.5,-17.375,44.5625,42.1875,324.5,0.832397,-0.165955,-0.456909,0.266113
-98.75,-60.8125,-123.75,12.11,-6.4,9.28,-0.875,27.5,-17.375,45,43.4375,325.875,0.831604,-0.166382,-0.464539,0.254822
-90.5625,-56,-121.938,11.69,-6.4,9.28,-0.875,27.5,-17.375,45,43.4375,325.875,0.831604,-0.166382,-0.464539,0.254822
-81.375,-49.625,-115.875,11.66,-6.3,9.82,-3.5625,29.75,-12.5625,45.375,44.5625,327.25,0.830933,-0.166443,-0.471375,0.244141
-74.5,-47.625,-109.562,11.43,-5.9,10.36,-3.5625,29.75,-12.5625,45.9375,46.6875,329.688,0.829346,-0.16626,-0.483887,0.224609
-71.5625,-46.375,-103.75,10.96,-4.92,9.8,-3.5625,29.75,-12.5625,46.25,47.6875,330.812,0.82843,-0.16626,-0.489563,0.215332
-70.25,-43,-99.9375,9.7,-4.54,8.76,-3.5625,29.75,-12.5625,46.4375,48.625,332,0.827637,-0.166138,-0.494934,0.205994
-67.75,-39,-100.5,8.86,-4.54,8.76,-3.5625,29.75,-12.5625,46.4375,48.625,332,0.827637,-0.166138,-0.494934,0.205994
-62.25,-37.25,-106.25,8.34,-4.37,7.41,-6.5,30.5625,-11.25,46.5,49.625,333.25,0.827026,-0.165344,-0.500061,0.196472
-49.25,-38.4375,-116.5,8.67,-4.06,5.65,-6.5,30.5625,-11.25,46,51.875,335.75,0.826233,-0.159302,-0.510437,0.177246
-31.1875,-44.125,-126.125,8.7,-2.76,5.98,-6.5,30.5625,-11.25,45.5,53.125,336.938,0.825562,-0.153748,-0.516174,0.168457
-11.625,-54.5,-129.75,8.43,-1.82,6.54,-6.5,30.5625,-11.25,44.875,54.5,337.938,0.824524,-0.146912,-0.522278,0.160461
3.5625,-65.375,-128.688,7.85,-1.82,6.54,-6.5,30.5625,-11.25,44.875,54.5,337.938,0.824524,-0.146912,-0.522278,0.160461
9.4375,-77.125,-125.062,5.86,-0.39,6.79,-9.0625,30.1875,-9.375,44.3125,55.875,338.875,0.822876,-0.139709,-0.529053,0.153076
6.5,-92.1875,-123.812,4.94,0.3,5.95,-9.0625,30.1875,-9.375,43.6875,59,340.75,0.816711,-0.125366,-0.546021,0.138245
-0.75,-113.25,-127.375,4.12,0.3,5.77,-9.0625,30.1875,-9.375,43.6875,60.875,341.812,0.811768,-0.117981,-0.557068,0.129761
-9.125,-138.312,-138,3.94,0.35,4.7,-9.0625,30.1875,-9.375,43.8125,63,343.062,0.805725,-0.110168,-0.569458,0.119934
-17.125,-157.375,-153.812,4.9,-0.35,4.7,-9.0625,30.1875,-9.375,43.8125,63,343.062,0.805725,-0.110168,-0.569458,0.119934
-22.875,-163.75,-166.875,5.6,-0.66,3.58,-13.25,28.375,-7.75,43.875,65.25,344.438,0.799133,-0.102051,-0.582275,0.109009
-23.8125,-157.25,-172.438,5.54,-0.79,2.43,-13.25,28.375,-7.75,43.3125,69.625,345.938,0.786682,-0.085144,-0.605347,0.0864868
-16.6875,-141.625,-168.625,4.7,-1.33,0.78,-13.25,28.375,-7.75,42.5625,71.5625,348.75,0.781128,-0.076416,-0.614868,0.0766602
-4.1875,-127.562,-158.375,4.19,-1.62,0.19,-13.25,28.375,-7.75,41.75,73.375,349.875,0.775696,-0.0675659,-0.623718,0.0685425
10.125,-121.75,-142.312,3.72,-1.81,0.19,-13.25,28.375,-7.75,41.75,73.375,349.875,0.775696,-0.0675659,-0.623718,0.0685425
26.9375,-121.625,-120.625,3.47,-1.92,-0.05,-16.5625,27.5625,-4.5,41.1875,75.0625,350.625,0.770081,-0.0587158,-0.632141,0.0627441
45.25,-126.75,-93.4375,2.83,-1.53,0,-16.5625,27.5625,-4.5,42.5625,77.9375,350.938,0.75708,-0.0420532,-0.649231,0.0596313
61.9375,-136.688,-62.375,2.49,-1.19,0.97,-16.5625,27.5625,-4.5,45.625,79.1875,350.5,0.74939,-0.034668,-0.658264,0.0622559
76.0625,-146.5,-32.3125,1.84,-0.83,1.81,-16.5625,27.5625,-4.5,50.5625,80.1875,349.625,0.74115,-0.0280762,-0.667358,0.0669556
85.0625,-151.562,-7.125,0.82,-0.48,1.81,-16.5625,27.5625,-4.5,50.5625,80.1875,349.625,0.74115,-0.0280762,-0.667358,0.0669556
87.25,-152,10.875,0.73,-0.59,1.63,-20.875,25,-4.75,65.625,81.5,347.438,0.723938,-0.0175171,-0.685059,0.0795288
85.375,-151.375,23.875,1.07,-0.99,1.15,-20.875,25,-4.75,74.8125,81.6875,346.125,0.715088,-0.0133667,-0.693481,0.0866699
83,-149.625,33.9375,1.66,-1.49,0.09,-20.875,25,-4.75,84,81.5,344.75,0.706238,-0.00982666,-0.701599,0.0944214
84.125,-146.25,44.4375,2.47,-2.22,0.23,-20.875,25,-4.75,92.125,81,343.125,0.697449,-0.0067749,-0.709106,0.103271
89.5625,-140.375,57.25,3.01,-2.36,0.23,-20.875,25,-4.75,92.125,81,343.125,0.697449,-0.0067749,-0.709106,0.103271
95.4375,-136.125,71.6875,3.48,-2.42,0.6,-20.875,24.5625,-1.5625,98.75,80.1875,341.375,0.688721,-0.00476074,-0.716187,0.112793
99,-131.562,86.25,3.4,-2.33,0.64,-20.875,24.5625,-1.5625,103.75,79.125,339.312,0.679871,-0.00292969,-0.722778,0.12384
99.6875,-122.875,98.5625,3.3,-2.85,-0.2,-20.875,24.5625,-1.5625,109.688,76.5,334.875,0.662598,-0.00146484,-0.734314,0.147644
98.4375,-120.875,105.812,3.13,-3.32,-0.62,-20.875,24.5625,-1.5625,111.75,75.125,332.5,0.653442,-0.00140381,-0.739929,0.159668
95.125,-124.188,109.625,3.49,-3.74,-0.62,-20.875,24.5625,-1.5625,111.75,75.125,332.5,0.653442,-0.00140381,-0.739929,0.159668
93.3125,-125.25,111.625,5.14,-4.83,-1.35,-20.1875,25,-2.5,114.5,72.125,327.625,0.634583,-0.00195312,-0.750671,0.183899
94.125,-122.25,115.625,6.24,-5.29,-1.23,-20.1875,25,-2.5,115.188,70.5625,325.062,0.625061,-0.00280762,-0.755432,0.196533
95.3125,-118.375,123.438,6.98,-5.51,-1.11,-20.1875,25,-2.5,115.438,68.9375,322.312,0.615356,-0.00457764,-0.759766,0.209717
94.6875,-115.438,135.812,7.32,-5.68,-0.78,-20.1875,25,-2.5,115.5,67.125,319.438,0.605347,-0.00744629,-0.763916,0.22345
91.5,-114.125,150.062,7.07,-5.89,-0.78,-20.1875,25,-2.5,115.5,67.125,319.438,0.605347,-0.00744629,-0.763916,0.22345
84.8125,-115.062,161.875,6.96,-6.02,-0.52,-18.25,27.1875,-2.5,115.438,65.25,316.5,0.594788,-0.0113525,-0.768005,0.237183
73.8125,-118.312,168.688,6.95,-6.24,-0.35,-18.25,27.1875,-2.5,115.375,63.25,313.5,0.58374,-0.0217285,-0.776733,0.262817
58.5625,-125.312,169.125,7.25,-7.48,-2.14,-18.25,27.1875,-2.5,116.062,59.25,307.812,0.559326,-0.0274048,-0.781982,0.273682
41.5625,-136.688,164.312,7.73,-8.24,-2.14,-18.25,27.1875,-2.5,116.812,57.25,305.125,0.545776,-0.032959,-0.787964,0.283203
27.5,-149.938,155.625,8.45,-9.02,-2.95,-18.25,27.1875,-2.5,116.812,57.25,305.125,0.545776,-0.032959,-0.787964,0.283203
17.875,-167.5,134.875,9.56,-9.8,-3.64,-15,29.875,-2.5,117.875,55.375,302.562,0.531372,-0.0370483,-0.794739,0.291016
17.875,-167.5,134.875,12.18,-11.35,-5.29,-15,29.875,-2.5,118.812,53.4375,299.875,0.516785,-0.0411987,-0.80127,0.298767
19.125,-169.25,129.625,13.05,-11.79,-7.88,-15,29.875,-2.5,120.375,49.625,294.375,0.487427,-0.0484009,-0.813232,0.314148
26.5,-164.5,130.75,14,-11.82,-7.88,-15,29.875,-2.5,120.688,47.75,291.25,0.473083,-0.0518799,-0.817871,0.323303
42.4375,-157.25,137.188,12.86,-10.61,-8.08,-15,29.875,-2.5,120.688,47.75,291.25,0.473083,-0.0518799,-0.817871,0.323303
81.9375,-133.125,142.062,12,-9.74,-7.37,-12.25,31.375,-0.75,120.312,45.875,287.875,0.460327,-0.0548096,-0.82019,0.335205
81.9375,-133.125,142.062,11.25,-9,-6.42,-12.25,31.375,-0.75,119.938,44.0625,284.375,0.447388,-0.0576782,-0.822266,0.346985
93.75,-116.188,134.812,10.47,-8.64,-5.94,-12.25,31.375,-0.75,118.688,41.0625,278.188,0.426819,-0.0614624,-0.822998,0.36969
90.5,-88.0625,106.812,10,-8.43,-5.94,-12.25,31.375,-0.75,118.062,39.75,275.375,0.417786,-0.0628662,-0.822754,0.38031
90.5,-88.0625,106.812,10.24,-8.5,-6.45,-12.25,31.375,-0.75,118.062,39.75,275.375,0.417786,-0.0628662,-0.822754,0.38031
80.8125,-61.5625,82.625,10.49,-8.51,-6.98,-9.25,32.0625,-1.5625,116.75,37.75,270.938,0.404724,-0.0648193,-0.820801,0.397888
80.8125,-61.5625,82.625,10.68,-8.33,-7.32,-9.25,32.0625,-1.5625,115.938,36.9375,269.125,0.400208,-0.0665894,-0.818787,0.406189
78.375,-31.75,79.5625,11.15,-7.74,-7.22,-9.25,32.0625,-1.5625,115.125,36.125,267.312,0.395752,-0.0682983,-0.816711,0.414429
78.375,-31.75,79.5625,11.17,-7.39,-7.2,-9.25,32.0625,-1.5625,114.25,35.1875,265.688,0.392151,-0.0725708,-0.813965,0.422424
67.9375,-7.5625,98.5625,11.05,-7.04,-7.23,-9.25,32.0625,-1.5625,114.25,35.1875,265.688,0.392151,-0.0725708,-0.813965,0.422424
57.3125,-0.375,111.938,9.55,-6.84,-5.98,-7.0625,32.875,-4,113.375,34.1875,264.125,0.388428,-0.0782471,-0.811157,0.430115
35.6875,-3.625,118.312,7.59,-6.5,-5.42,-7.0625,32.875,-4,112.75,33.125,262.688,0.384094,-0.085083,-0.809143,0.436462
11.0625,-18,109.375,6.25,-5.89,-6.15,-7.0625,32.875,-4,112.5,31.1875,260.062,0.373047,-0.0964355,-0.809143,0.443665
-4.4375,-35.625,89.5,5.97,-5.55,-7.07,-7.0625,32.875,-4,112.75,30.375,260.062,0.366638,-0.0996094,-0.81073,0.445374
-13.375,-53.625,69.8125,7.17,-5.56,-6.87,-7.0625,32.875,-4,112.75,30.375,258.875,0.366638,-0.0996094,-0.81073,0.445374
-23.4375,-69.625,56.8125,8.08,-5.62,-6.36,-5.1875,33.1875,-5.6875,113.25,29.5625,257.688,0.359375,-0.101379,-0.813293,0.446228
-36.1875,-83.5,51.4375,8.76,-5.69,-6.09,-5.1875,33.1875,-5.6875,113.875,28.8125,256.438,0.351379,-0.102844,-0.816711,0.446045
-48.5625,-93.375,49.75,9.25,-5.77,-5.98,-5.1875,33.1875,-5.6875,115.625,27.125,253.875,0.333435,-0.105591,-0.825378,0.443176
-58.0625,-98.375,49.5,9.99,-6.25,-5.86,-5.1875,33.1875,-5.6875,116.562,27.125,253.875,0.323975,-0.107178,-0.830139,0.440979
-64.375,-99.875,50,10.14,-6.46,-5.66,-5.1875,33.1875,-5.6875,116.562,26.3125,252.562,0.323975,-0.107178,-0.830139,0.440979
-68.4375,-100.562,49.4375,10.08,-6.53,-5.44,-2.5,32.375,-5.375,117.562,25.4375,251.25,0.314392,-0.108643,-0.834961,0.438416
-70.0625,-101.438,46.5,10,-6.52,-5.35,-2.5,32.375,-5.375,118.5,24.5625,249.938,0.304871,-0.110046,-0.839722,0.435608
-68.375,-101.562,41.4375,9.97,-6.39,-5.34,-2.5,32.375,-5.375,120.438,22.9375,247.25,0.286255,-0.111328,-0.848999,0.429932
-65.25,-102.938,34.75,9.81,-6.14,-5.31,-2.5,32.375,-5.375,120.438,22.9375,247.25,0.277405,-0.11084,-0.853088,0.427856
-51.375,-101.938,27.3125,10.26,-6.7,-6.78,-2.5,32.375,-5.375,121.188,22.1875,245.875,0.277405,-0.11084,-0.853088,0.427856
-31.375,-102.938,21.375,10.37,-5.73,-6.12,-2.1875,33.0625,-4.0625,121.812,21.5,244.25,0.268555,-0.108643,-0.856445,0.427246
-17.0625,-107.875,17.5,9.75,-5.58,-5.15,-2.1875,33.0625,-4.0625,122.25,20.8125,242.562,0.259949,-0.106384,-0.859314,0.427368
-7.9375,-116.75,12.4375,9.61,-5.25,-4.61,-2.1875,33.0625,-4.0625,123.062,19.375,238.688,0.241455,-0.0991211,-0.864685,0.429199
-1.8125,-127.125,5.9375,9.29,-4.92,-4.27,-2.1875,33.0625,-4.0625,123.375,19.375,238.688,0.231506,-0.093811,-0.867249,0.430664
5.5625,-137.562,-2.875,9.25,-4.85,-4.16,-2.1875,33.0625,-4.0625,123.375,18.6875,236.5,0.231506,-0.093811,-0.867249,0.430664
13.6875,-147.5,-13.4375,9.22,-4.81,-3.69,-1.25,33.875,-1.375,123.688,18,234.125,0.221252,-0.0870972,-0.86969,0.432556
18.125,-158.312,-24.125,9.23,-4.74,-2.87,-1.25,33.875,-1.375,123.938,17.3125,231.688,0.210632,-0.0792236,-0.87207,0.43457
17.5625,-170.188,-33.375,9.49,-4.69,-2.07,-1.25,33.875,-1.375,124.625,16,226.312,0.187439,-0.0601807,-0.877197,0.437866
15.75,-183.5,-40.125,9.78,-4.68,-2.36,-1.25,33.875,-1.375,124.625,16,226.312,0.1745,-0.0492554,-0.879822,0.439331
16.875,-197.75,-44.625,9.73,-4.59,-2.77,-1.25,33.875,-1.375,124.938,15.25,223.312,0.1745,-0.0492554,-0.879822,0.439331
20.75,-214.188,-50.0625,9.09,-4.01,-2.6,-2.0625,33.5,-2.1875,125.25,14.4375,219.938,0.160461,-0.0372925,-0.882263,0.440979
22.625,-232.25,-57.6875,8.8,-3.7,-2.39,-2.0625,33.5,-2.1875,125.625,13.625,216.312,0.145325,-0.0240479,-0.884583,0.442505
24.125,-248.062,-68.25,8.48,-3.61,-2.52,-2.0625,33.5,-2.1875,126.188,11.875,208.438,0.112854,0.00689697,-0.888245,0.445251
28.5625,-261.688,-81.8125,8.29,-3.58,-2.68,-2.0625,33.5,-2.1875,126.188,11.875,208.438,0.112854,0.0247803,-0.889282,0.446533
33.375,-272.375,-97.8125,8.3,-3.24,-2.05,-2.0625,33.5,-2.1875,126.438,11.125,204.25,0.0960693,0.0247803,-0.889282,0.446533
37.75,-274.188,-114.5,8.79,-3.24,-2.14,-3.1875,33.375,-2.1875,126.562,10.375,200.125,0.0796509,0.0440063,-0.889526,0.447693
48.5625,-260.688,-128,9.28,-3.25,-2.28,-3.1875,33.375,-2.1875,126.625,9.875,196.375,0.0646973,0.0637817,-0.888733,0.449402
65.1875,-239.062,-136.25,9.85,-3.44,-2.27,-3.1875,33.375,-2.1875,126.062,9.4375,193,0.0400391,0.102417,-0.883179,0.455933
81.0625,-216.938,-138.562,10.44,-3.92,-0.79,-3.1875,33.375,-2.1875,126.062,9.4375,190,0.0400391,0.102417,-0.879028,0.460266
89.6875,-203,-137,10.29,-4.26,0.12,-3.1875,33.375,-2.1875,125.562,9.3125,187.25,0.0294189,0.120728,-0.879028,0.460266
91.1875,-194,-134.5,10.23,-4.46,0.62,-6.5,33,-1,125.062,9.3125,184.75,0.0192871,0.138489,-0.87439,0.464661
90.375,-186.875,-132.688,9.01,-4.72,0.97,-6.5,33,-1,124.562,9.3125,182.312,0.00964355,0.155701,-0.869385,0.468811
90.5625,-184.875,-136.438,8.42,-4.69,1.19,-6.5,33,-1,123.562,9.4375,180.062,-0.0088501,0.191162,-0.858032,0.476562
90.375,-186.188,-145.812,8.19,-4.56,1.62,-6.5,33,-1,123.562,9.5625,177.875,-0.0088501,0.210144,-0.851685,0.479797
86.0625,-189.625,-158.688,8.04,-4.42,2.33,-6.5,33,-1,123.125,9.875,175.75,-0.0175781,0.210144,-0.851685,0.479797
76.0625,-194.312,-175.062,8.56,-4.52,3.56,-9.0625,31.875,-3.5,122.875,10.25,173.812,-0.0258179,0.230469,-0.844971,0.481934
64.375,-192.188,-191.625,9.5,-4.83,3.73,-9.0625,31.875,-3.5,122.688,10.8125,172.188,-0.032959,0.25177,-0.837952,0.483093
54.3125,-182.438,-204.562,10.44,-5.26,3.58,-9.0625,31.875,-3.5,122.688,11.5,170.812,-0.0427246,0.294983,-0.822998,0.483521
47.625,-166.25,-213.688,12.14,-6.33,4.06,-9.0625,31.875,-3.5,122.75,12.375,169.875,-0.0427246,0.294983,-0.822998,0.483521
41.5,-144.188,-217.688,13.09,-6.96,4.41,-9.0625,31.875,-3.5,122.875,13.375,169.375,-0.0448608,0.315796,-0.815186,0.483521
35.375,-119.938,-215.875,13.91,-7.63,4.45,-14,30.375,-2.5625,123.062,14.5,169.25,-0.0452271,0.335327,-0.807312,0.483459
31.1875,-95.3125,-210.312,14.44,-8.18,4.34,-14,30.375,-2.5625,123.25,15.6875,169.562,-0.0440063,0.353394,-0.799561,0.483582
29.875,-71.5625,-204.25,14.6,-9.02,4.18,-14,30.375,-2.5625,123.5,17,170.188,-0.0413818,0.385376,-0.783997,0.485229
30.3125,-50.5,-202,14.24,-9.35,4.07,-14,30.375,-2.5625,123.625,18.375,171.125,-0.0374756,0.385376,-0.783997,0.486755
32.0625,-36,-205.812,13.95,-9.7,3.87,-14,30.375,-2.5625,123.812,19.8125,172.312,-0.0324707,0.400269,-0.775757,0.486755
35.75,-30.75,-214.812,13.62,-10.01,3.54,-17.875,26.6875,-3.375,124,21.375,173.688,-0.0268555,0.415466,-0.766785,0.488586
54.1875,-32.25,-228.625,13.8,-10.75,1.58,-17.875,26.6875,-3.375,124.125,23,175,-0.0213623,0.431396,-0.756287,0.491333
74.3125,-38.0625,-245.688,14.77,-10.83,2.28,-17.875,26.6875,-3.375,124.125,24.8125,176.188,-0.0162964,0.448425,-0.730286,0.499084
84.5625,-39.1875,-262.312,14.9,-10.97,2.88,-17.875,26.6875,-3.375,124.125,26.6875,177.438,-0.0110474,0.466309,-0.730286,0.503052
88.3125,-39.875,-276.938,16.85,-11.09,3.37,-17.875,26.6875,-3.375,124.25,28.6875,178.75,-0.00531006,0.484863,-0.715393,0.503052
90.5,-35.875,-284.562,17.66,-11.38,3.02,-22.6875,22.0625,-3.6875,124.375,30.75,180.188,0.000915527,0.503357,-0.699646,0.507019
93.875,-29.4375,-285.938,18.38,-11.7,2.79,-22.6875,22.0625,-3.6875,124.625,32.875,181.625,0.00744629,0.521362,-0.683228,0.511169
96.3125,-21.625,-284.062,18.62,-11.9,2.77,-22.6875,22.0625,-3.6875,124.875,35,183.125,0.0142212,0.538574,-0.666382,0.519409
93.1875,-16.8125,-283.5,17.8,-11.86,3.25,-22.6875,22.0625,-3.6875,125.188,37.1875,184.688,0.0213623,0.555237,-0.649231,0.5224
82.3125,-17.9375,-288.438,17.34,-11.76,3.11,-22.6875,22.0625,-3.6875,125.812,39.3125,186.375,0.0291748,0.571777,-0.631958,0.5224
67.625,-22.9375,-298.75,17.24,-11.73,2.62,-25.6875,15.375,-6.5,126.75,41.5,188.25,0.0378418,0.588745,-0.61438,0.523987
54.0625,-29.125,-310.438,18.13,-12.44,0.98,-25.6875,15.375,-6.5,128.125,43.75,190.312,0.0473633,0.606079,-0.596436,0.52417
45.4375,-33.125,-320.875,18.77,-12.86,0.37,-25.6875,15.375,-6.5,129.875,45.9375,192.5,0.0575562,0.623657,-0.577881,0.521667
39.75,-33.125,-327.812,19.04,-13.09,0.12,-25.6875,15.375,-6.5,132,48.125,194.875,0.0682983,0.641052,-0.558777,0.521667
32.9375,-29.625,-332.688,19.17,-13.19,-0.04,-25.6875,15.375,-6.5,134.5,50.3125,197.438,0.0797119,0.65802,-0.539307,0.51947
23.25,-23.0625,-336.188,19.09,-13.08,-0.4,-27.875,6.25,-6.5,137.375,52.375,200.188,0.0921021,0.674194,-0.519531,0.516785
12.1875,-16.1875,-337.938,19.05,-13.12,-0.96,-27.875,6.25,-6.5,140.75,54.4375,203.188,0.105408,0.689575,-0.499695,0.51355
3.5625,-10.0625,-336.812,18.99,-13.34,-1.62,-27.875,6.25,-6.5,144.562,56.3125,206.312,0.119324,0.703979,-0.479797,0.509888
-0.375,-4.25,-335.375,18.7,-13.57,-2.38,-27.875,6.25,-6.5,148.812,58.0625,209.562,0.133545,0.717468,-0.459717,0.506042
0.125,1.9375,-332.438,18.29,-13.78,-3.35,-27.875,6.25,-6.5,153.438,59.625,212.75,0.147766,0.72998,-0.439331,0.502258
2.5625,6.3125,-326.938,17.45,-13.58,-3.6,-28.375,-2,-5.1875,158.438,61,215.938,0.161682,0.741577,-0.418823,0.498474
5.875,5.875,-323.438,16.52,-13.15,-3.86,-28.375,-2,-5.1875,163.812,62.0625,218.938,0.175049,0.752563,-0.398132,0.494446
9.875,4.25,-321.125,15.46,-12.41,-4.09,-28.375,-2,-5.1875,169.5,62.8125,221.938,0.187927,0.763062,-0.377075,0.490112
12.4375,2.25,-317.875,14.84,-12.23,-4,-28.375,-2,-5.1875,175.375,63.25,224.812,0.200256,0.77301,-0.355896,0.485413
13.6875,-1.6875,-315.438,13.98,-11.93,-3.96,-28.375,-2,-5.1875,-178.625,63.3125,227.625,0.212158,0.782532,-0.334656,0.480225
15.5,-4.375,-313.562,13.4,-11.49,-4.05,-26.5625,-12.5625,-3.875,-172.75,63,230.438,0.223694,0.791565,-0.313293,0.474609
18.0625,-4,-309.75,12.1,-10.57,-4.04,-26.5625,-12.5625,-3.875,-167.188,62.5,233.188,0.23468,0.799988,-0.291809,0.468811
20.375,-2.125,-304,11.47,-10.02,-3.76,-26.5625,-12.5625,-3.875,-162.062,61.6875,235.812,0.245239,0.807739,-0.270386,0.462952
20.625,0.75,-295.812,10.85,-9.52,-3.45,-26.5625,-12.5625,-3.875,-157.375,60.6875,238.312,0.25531,0.814636,-0.249329,0.457214
18.4375,2.75,-283.938,9.86,-8.96,-3.21,-26.5625,-12.5625,-3.875,-153.188,59.5625,240.75,0.264954,0.820679,-0.228943,0.451538
15,3.875,-268.75,9.17,-8.74,-3.18,-22.1875,-18.1875,-3.5625,-149.5,58.375,243.125,0.27417,0.825806,-0.209595,0.445984
10.5625,4.1875,-252.688,8.38,-8.53,-3.3,-22.1875,-18.1875,-3.5625,-146.25,57.0625,245.375,0.282959,0.8302,-0.191467,0.440491
7.8125,3.625,-236.812,7.5,-8.25,-3.48,-22.1875,-18.1875,-3.5625,-143.5,55.8125,247.562,0.29126,0.833923,-0.174438,0.43512
7.3125,1.75,-222.625,5.98,-7.77,-3.71,-22.1875,-18.1875,-3.5625,-141.062,54.5,249.625,0.298889,0.837158,-0.158386,0.42981
9.0625,-1.6875,-209.688,5.24,-7.43,-3.84,-22.1875,-18.1875,-3.5625,-139.062,53.1875,251.5,0.305786,0.840149,-0.14325,0.424438
13.0625,-5.125,-198.812,4.54,-7.05,-3.94,-17.75,-23.0625,-3.5625,-137.375,51.875,253.312,0.31189,0.842957,-0.128784,0.419067
18.6875,-9.25,-189.5,3.91,-6.63,-3.89,-17.75,-23.0625,-3.5625,-135.938,50.5625,254.938,0.317139,0.845703,-0.114868,0.413574
23.9375,-10.75,-181.812,2.95,-5.9,-3.35,-17.75,-23.0625,-3.5625,-134.812,49.25,256.438,0.321594,0.848389,-0.101318,0.408081
27.25,-8.5625,-174.25,2.72,-5.7,-2.92,-17.75,-23.0625,-3.5625,-133.75,47.9375,257.812,0.325562,0.85083,-0.0880737,0.402954
27.25,-3.75,-164.688,2.72,-5.59,-2.48,-17.75,-23.0625,-3.5625,-132.875,46.75,259.125,0.329163,0.852844,-0.0754395,0.398315
24.125,2.8125,-150.125,3.19,-5.73,-2.32,-14.875,-26.5,-3.5625,-132.062,45.75,260.188,0.332458,0.854309,-0.0637207,0.39447
19.9375,10.125,-129.438,3.16,-5.77,-2.51,-14.875,-26.5,-3.5625,-131.312,44.875,261.125,0.335327,0.855164,-0.0534058,0.391602
16.625,15.6875,-105.812,2.75,-5.74,-2.92,-14.875,-26.5,-3.5625,-130.75,44.1875,261.75,0.337708,0.855591,-0.0447998,0.389832
15.9375,16.6875,-83.75,2.29,-5.64,-3.25,-14.875,-26.5,-3.5625,-130.25,43.6875,262.188,0.339355,0.855774,-0.0377197,0.388672
16.875,17.625,-65.375,1.87,-5.35,-3.02,-14.875,-26.5,-3.5625,-129.938,43.3125,262.438,0.340332,0.855835,-0.0319214,0.388123
16.0625,21.375,-49,1.83,-5.25,-2.43,-10.75,-28,-3.25,-129.625,43.0625,262.5,0.34082,0.855713,-0.0272217,0.388306
11.25,27.75,-32.9375,1.81,-5.25,-1.84,-10.75,-28,-3.25,-129.375,43,262.438,0.341187,0.855225,-0.0236816,0.389404
2.6875,36.9375,-16.375,2.15,-5.36,-1.34,-10.75,-28,-3.25,-129,43.0625,262.188,0.341553,0.854126,-0.0213623,0.391602
-6.8125,47.5,2.8125,2.6,-5.45,-1.67,-10.75,-28,-3.25,-128.625,43.375,261.75,0.342041,0.852356,-0.0203857,0.395081
-14.375,57.25,25.8125,2.87,-5.49,-2.23,-10.75,-28,-3.25,-128.25,43.9375,261.125,0.342346,0.849976,-0.0211182,0.399963
-17.0625,64.4375,51.125,2.8,-5.38,-2.84,-9.5625,-29.0625,-1.5625,-127.875,44.6875,260.188,0.341919,0.847168,-0.0234985,0.406006
-15.375,67.875,74.5625,2.56,-5.31,-4.01,-9.5625,-29.0625,-1.5625,-127.688,45.6875,259,0.340576,0.844238,-0.0274048,0.412964
-10.625,67.8125,94.75,2.58,-5.36,-4.42,-9.5625,-29.0625,-1.5625,-127.625,46.8125,257.562,0.338196,0.841309,-0.0325928,0.420471
-4.5,63.625,112,2.68,-5.42,-4.75,-9.5625,-29.0625,-1.5625,-127.75,48.0625,256,0.334717,0.838562,-0.0388794,0.428162
1.8125,55.625,128.062,3.04,-5.51,-4.9,-9.5625,-29.0625,-1.5625,-128.125,49.375,254.25,0.330078,0.836121,-0.0462646,0.43573
6.625,46.75,142.812,3.84,-5.67,-4.59,-8.875,-28.75,-3.5625,-128.812,50.75,252.438,0.324524,0.833923,-0.0548096,0.442993
8.5625,38.4375,155.812,4.1,-5.65,-4.32,-8.875,-28.75,-3.5625,-129.75,52.125,250.5,0.318237,0.831909,-0.0643921,0.449951
6.625,32.8125,165.5,4.44,-5.62,-4.1,-8.875,-28.75,-3.5625,-130.875,53.5625,248.562,0.311646,0.829895,-0.0748901,0.456726
2.0625,29.8125,172.875,5.82,-5.76,-3.74,-8.875,-28.75,-3.5625,-132.125,55,246.688,0.304993,0.827576,-0.0861816,0.463318
-4.5625,29.8125,181.312,6.69,-5.87,-3.8,-8.875,-28.75,-3.5625,-133.5,56.5,244.812,0.29834,0.82489,-0.0982056,0.469971
-12.8125,31.5,192.438,7.42,-6.04,-3.92,-11.5,-26.5,-4.5,-135.062,58,242.875,0.29187,0.821594,-0.111328,0.476868
-20.75,31.9375,205.375,7.99,-6.28,-4.24,-11.5,-26.5,-4.5,-136.875,59.625,241,0.285278,0.817749,-0.12561,0.483887
-25.25,28.9375,216.875,8.61,-6.67,-5.09,-11.5,-26.5,-4.5,-139.062,61.25,239.125,0.278442,0.813538,-0.14093,0.490723
-26,27,225.688,9.04,-6.65,-5,-11.5,-26.5,-4.5,-141.688,62.8125,237.125,0.271118,0.80896,-0.15686,0.497498
-28.375,25.5,233.25,9.32,-6.76,-4.87,-11.5,-26.5,-4.5,-144.75,64.375,235.188,0.26355,0.803955,-0.17334,0.50415
-32.3125,21.1875,238.5,10.05,-7.08,-4.84,-15.25,-24.6875,-4.5,-148.375,65.8125,233.25,0.255859,0.798706,-0.19043,0.510315
-36.6875,16.375,242.625,10.66,-7.31,-4.86,-15.25,-24.6875,-4.5,-152.5,67.125,231.312,0.248047,0.793091,-0.207947,0.51593
-41.75,12.875,247.625,11.2,-7.46,-4.93,-15.25,-24.6875,-4.5,-157.312,68.25,229.5,0.240234,0.78717,-0.226074,0.521118
-46.6875,11.1875,253.5,11.71,-7.53,-4.85,-15.25,-24.6875,-4.5,-162.688,69.1875,227.625,0.232361,0.780701,-0.24469,0.526001
-52.125,11.4375,260.312,12.47,-7.66,-4.5,-15.25,-24.6875,-4.5,-168.688,69.9375,225.812,0.224426,0.77356,-0.263855,0.53064
-59.1875,11.3125,267.375,12.77,-7.79,-4.53,-18.25,-21.375,-5.5625,-175.188,70.375,224,0.216492,0.765747,-0.283691,0.535034
-67.8125,8.9375,273.062,13.06,-8,-4.56,-18.25,-21.375,-5.5625,177.938,70.5625,222.312,0.208679,0.757385,-0.304199,0.538818
-77.0625,5.875,277.062,13.34,-8.16,-4.52,-18.25,-21.375,-5.5625,171.125,70.375,220.688,0.201111,0.748413,-0.325195,0.541931
-87,4.875,280,14.1,-8.66,-4.06,-18.25,-21.375,-5.5625,164.625,69.8125,219.188,0.193848,0.73877,-0.34668,0.544434
-97.5625,7.5625,281.562,14.61,-8.98,-3.85,-18.25,-21.375,-5.5625,158.625,69.0625,217.812,0.187195,0.728333,-0.36853,0.546509
-108.938,13,284.625,15.28,-9.36,-3.71,-22.0625,-15.6875,-7.25,153.125,68,216.5,0.181091,0.716919,-0.390747,0.548218
-121.125,21.4375,290.688,16.58,-10.26,-3.66,-22.0625,-15.6875,-7.25,148.125,66.8125,215.375,0.175598,0.704224,-0.413452,0.549744
-133.375,31.375,299.25,16.95,-10.58,-3.75,-22.0625,-15.6875,-7.25,143.625,65.4375,214.375,0.170654,0.690063,-0.436829,0.551208
-144.625,39.8125,308.688,16.95,-10.75,-4.02,-22.0625,-15.6875,-7.25,139.562,63.875,213.438,0.166138,0.6745,-0.460815,0.552429
-153.188,43.9375,316.375,16.75,-10.86,-4.48,-22.0625,-15.6875,-7.25,136,62.1875,212.562,0.161743,0.657654,-0.485107,0.553162
-157.75,41.625,319.938,16.3,-11.05,-5.13,-23.1875,-10.375,-10.0625,133.062,60.25,211.688,0.157166,0.640137,-0.50946,0.553101
-159.562,34.1875,319.688,16.31,-11.15,-5.13,-23.1875,-10.375,-10.0625,130.688,58.125,210.812,0.152283,0.622375,-0.533508,0.552063
-160.438,24.3125,316.188,16.53,-11.35,-5.02,-23.1875,-10.375,-10.0625,128.938,55.9375,209.875,0.147034,0.604675,-0.557068,0.549927
-161.938,13.625,311.938,17.24,-11.74,-4.97,-23.1875,-10.375,-10.0625,127.688,53.6875,208.938,0.141357,0.587097,-0.580078,0.546692
-162.875,3.9375,307.812,17.55,-11.73,-4.9,-23.1875,-10.375,-10.0625,126.875,51.3125,208,0.135376,0.569641,-0.602539,0.542297
-163.25,-5,304.25,17.63,-11.61,-4.65,-24.375,-1.6875,-11.25,126.375,48.9375,207,0.128967,0.552246,-0.624451,0.537048
-164.5,-12.25,299.938,17.79,-11.51,-4.42,-24.375,-1.6875,-11.25,126.188,46.5,205.938,0.122314,0.534973,-0.645813,0.530823
-166.5,-17.75,294.875,18.32,-11.38,-4.13,-24.375,-1.6875,-11.25,126.25,44.125,204.875,0.115601,0.517761,-0.666504,0.523743
-168.688,-20.25,289.562,18.69,-11.29,-3.91,-24.375,-1.6875,-11.25,126.5,41.75,203.812,0.109009,0.500488,-0.686523,0.515991
-171.312,-20.4375,285.812,18.97,-11.09,-3.6,-24.375,-1.6875,-11.25,126.875,39.4375,202.812,0.102539,0.483032,-0.705994,0.507629
-175.625,-17.875,283.438,19.13,-10.83,-3.38,-24.0625,6.5,-10.0625,127.375,37.125,201.875,0.0964966,0.46521,-0.724976,0.498657
-179.812,-13.125,280.562,18.93,-10.21,-3.23,-24.0625,6.5,-10.0625,127.938,34.875,201,0.0908813,0.44696,-0.743408,0.489258
-183,-7.1875,276.062,18.66,-9.86,-3.04,-24.0625,6.5,-10.0625,128.688,32.75,200.312,0.0858765,0.428345,-0.761108,0.479431
-185.938,-1.4375,270.25,18.32,-9.49,-2.74,-24.0625,6.5,-10.0625,129.438,30.6875,199.688,0.081543,0.409546,-0.778137,0.469177
-189.938,2.125,262.562,17.62,-8.62,-2.1,-24.0625,6.5,-10.0625,130.312,28.75,199.25,0.0778198,0.390747,-0.794434,0.458374
-194.125,3.5,252.75,17.31,-8.16,-2.02,-23,15.25,-7.25,131.375,26.9375,198.938,0.074646,0.372192,-0.809998,0.447021
-197.062,4.25,241.188,17.02,-7.66,-1.76,-23,15.25,-7.25,132.5,25.25,198.75,0.0720215,0.354187,-0.824707,0.434998
-199.125,6.625,228.125,16.75,-7.09,-1.24,-23,15.25,-7.25,133.688,23.6875,198.812,0.0700073,0.336731,-0.838501,0.422607
-202.25,11.0625,214.312,16.13,-6.16,-0.19,-23,15.25,-7.25,135,22.25,199.062,0.0689087,0.319824,-0.851501,0.409729
-206,16.4375,201,15.77,-5.71,0.07,-23,15.25,-7.25,136.438,21,199.625,0.0686646,0.303528,-0.863708,0.396423
-208.75,23.0625,188.188,15.32,-5.33,0.34,-19.5625,20.5,-4.375,137.875,19.9375,200.5,0.069397,0.28772,-0.875183,0.382751
-209,31.0625,174.938,14.26,-4.69,1.12,-19.5625,20.5,-4.375,139.375,19.0625,325.75,0.071106,0.272522,-0.885742,0.368958
-207.625,39.5625,162,13.82,-4.38,1.59,-19.5625,20.5,-4.375,140.875,18.375,327.875,0.0737915,0.257812,-0.895508,0.355225
-206.188,46,150.562,13.39,-4.08,2.04,-19.5625,20.5,-4.375,142.438,17.8125,329.812,0.0772095,0.243713,-0.904419,0.341492
-204.5,50,141.75,12.95,-3.69,2.49,-19.5625,20.5,-4.375,143.938,17.375,331.688,0.0811157,0.230042,-0.91272,0.327759
-200.25,48.8125,135,11.72,-2.94,2.81,-15.0625,26.5,0.75,145.5,17,333.438,0.085022,0.216858,-0.920349,0.314087
-191.062,39.75,128.188,10.91,-2.68,2.58,-15.0625,26.5,0.75,146.938,16.625,335.125,0.0881958,0.204468,-0.927307,0.300842
-173.75,23.3125,117.25,10.15,-2.64,2.1,-15.0625,26.5,0.75,148.312,16.1875,336.562,0.0900269,0.193359,-0.933411,0.288452
-146.438,2.625,100,9.55,-2.71,1.65,-15.0625,26.5,0.75,149.5,15.75,337.75,0.09021,0.184265,-0.938538,0.27771
-110.375,-16.6875,76.4375,9.25,-2.69,1.41,-15.0625,26.5,0.75,150.438,15.25,338.625,0.0888062,0.177734,-0.942383,0.269226
-69.5,-32.75,50,9.43,-2.57,1.49,-11.75,27.0625,3.0625,151,14.6875,339.125,0.0860596,0.17395,-0.944885,0.26355
-69.5,-32.75,50,9.74,-2.27,1.6,-11.75,27.0625,3.0625,151.312,14.1875,339.25,0.0823364,0.172852,-0.946228,0.260864
11.75,-54.375,1.8125,10.77,-1.52,2.03,-11.75,27.0625,3.0625,151.25,13.75,339.125,0.0777588,0.17395,-0.94635,0.261047
48.4375,-59.9375,-15.5625,11.3,-1.17,2.15,-11.75,27.0625,3.0625,150.875,13.3125,338.75,0.0726318,0.17688,-0.945435,0.263916
81.9375,-61.1875,-28.4375,11.56,-0.86,2.09,-11.75,27.0625,3.0625,150.188,12.9375,338.25,0.0671387,0.180969,-0.943481,0.269348
81.9375,-61.1875,-28.4375,11.5,-0.53,2.27,-10.25,27.875,6.75,149.25,12.625,337.562,0.0616455,0.186157,-0.940613,0.277161
112.375,-58.5,-52.8125,10.96,0.16,2.62,-10.25,27.875,6.75,148.062,12.4375,336.75,0.0564575,0.192322,-0.936768,0.286926
156.875,-48.75,-67.5,10.62,0.51,2.79,-10.25,27.875,6.75,146.75,12.375,335.812,0.0516968,0.199585,-0.931946,0.298218
170.875,-45.375,-84.5625,10.32,0.82,3,-10.25,27.875,6.75,145.312,12.5,334.625,0.0473633,0.208069,-0.926331,0.310486
179.125,-43.125,-102.5,10.34,0.89,3.38,-10.25,27.875,6.75,143.812,12.75,333.312,0.0435181,0.217896,-0.919861,0.323303
179.125,-43.125,-120.5,10.62,0.68,3.35,-11.1875,27.5,4.1875,142.312,13.125,331.812,0.0402832,0.229004,-0.912659,0.336182
182.125,-41,-137.062,10.95,0.28,3.03,-11.1875,27.5,4.1875,140.812,13.6875,330.125,0.0377808,0.241211,-0.904785,0.348999
182.75,-29.5625,-151.438,11.46,-0.36,2.36,-11.1875,27.5,4.1875,139.375,14.375,328.312,0.0362549,0.254211,-0.896179,0.361816
185.438,-21.125,-164.438,12.25,-1.69,0.94,-11.1875,27.5,4.1875,137.938,15.25,326.375,0.0357056,0.267822,-0.886841,0.374817
190.688,-12.5625,-176.5,12.38,-2.23,0.43,-11.1875,27.5,4.1875,136.5,16.375,190.562,0.0360107,0.281921,-0.876648,0.388184
190.688,-12.5625,-188,12.38,-2.69,0.13,-13,27.5,0.1875,135,17.5625,190.5,0.0370483,0.29657,-0.865479,0.401978
197.25,-1.4375,-200.25,12.39,-3.04,0.15,-13,27.5,0.1875,133.5,18.9375,190.625,0.0386963,0.311768,-0.853394,0.416016
203.812,-1.75,-214.188,12.32,-3.66,0.04,-13,27.5,0.1875,132,20.5,190.812,0.0407104,0.32782,-0.840332,0.42981
203.812,-6.0625,-230.438,12.38,-3.93,0.11,-13,27.5,0.1875,130.625,22.125,191.062,0.0430298,0.345032,-0.826355,0.443054
202.312,-12.5,-248.438,12.63,-4.35,0.26,-13,27.5,0.1875,129.438,23.875,191.438,0.0456543,0.363403,-0.811401,0.455505
198.688,-19.9375,-266.312,13.82,-5.63,0.05,-15.6875,23.375,-4.1875,128.375,25.75,191.875,0.048584,0.383057,-0.795593,0.466919
193.25,-26.625,-282.375,14.8,-6.46,-0.34,-15.6875,23.375,-4.1875,127.5,27.75,192.375,0.0518188,0.403687,-0.778809,0.477356
188.188,-29.75,-294.5,15.88,-7.28,-0.56,-15.6875,23.375,-4.1875,126.75,29.875,192.938,0.0553589,0.424866,-0.761047,0.487061
185.562,-27.3125,-302,16.83,-8.02,-0.43,-15.6875,23.375,-4.1875,126.188,32.0625,193.625,0.0593872,0.446045,-0.742432,0.496277
184.5,-19,-304.875,18.42,-9.15,0.45,-15.6875,23.375,-4.1875,125.625,34.3125,194.438,0.0640869,0.466675,-0.723083,0.505249
182.188,-6.5625,-304.375,18.88,-9.69,0.63,-20.5,17.6875,-9,125.188,36.6875,195.375,0.0696411,0.486328,-0.703186,0.513977
177.812,4.8125,-301.875,19.18,-10.35,0.61,-20.5,17.6875,-9,124.75,39.125,196.5,0.0759277,0.504822,-0.683044,0.5224
172.188,11.875,-299,19.06,-11.58,-0.07,-20.5,17.6875,-9,124.438,41.5625,197.688,0.0825806,0.5224,-0.662537,0.530396
167.5,11.75,-298.188,18.74,-11.99,-0.25,-20.5,17.6875,-9,124.312,44,198.812,0.0893555,0.53949,-0.641663,0.537842
164.438,4.8125,-301.25,18.65,-12.45,-0.3,-20.5,17.6875,-9,124.312,46.4375,199.938,0.0958252,0.55658,-0.620239,0.544373
163,4.8125,-307.062,18.64,-12.68,-0.33,-22.75,9.5,-9,124.688,48.8125,200.938,0.101868,0.574097,-0.598145,0.549805
162.25,-7.375,-315.25,19.98,-13.2,0,-22.75,9.5,-9,125.438,51.1875,201.938,0.107544,0.592102,-0.575256,0.554016
162.062,-33.1875,-321.375,21.02,-13.59,0.55,-22.75,9.5,-9,126.562,53.5625,202.875,0.112793,0.610474,-0.551636,0.557068
162,-40.5625,-324.188,21.99,-14.06,1.24,-22.75,9.5,-9,128.125,55.8125,203.75,0.117859,0.628723,-0.527527,0.559082
160.188,-41.625,-323.188,23.24,-15.08,2.18,-22.75,9.5,-9,130.125,57.9375,204.688,0.122864,0.646362,-0.503113,0.560364
156.312,-41.625,-320.688,23.6,-15.69,2.5,-22.75,1.25,-9,132.5,60.0625,205.688,0.128174,0.662964,-0.478577,0.561218
151.938,-36.1875,-320.688,23.6,-15.69,2.5,-22.75,1.25,-9,135.312,62.125,206.75,0.133789,0.678345,-0.453918,0.562073
147.625,-16.125,-312.75,23.38,-16.42,2.42,-22.75,1.25,-9,138.438,64.0625,207.812,0.139648,0.692444,-0.429138,0.562927
145,-6.5,-310.312,22.04,-16.29,2.51,-22.75,1.25,-9,142.062,65.9375,208.938,0.14563,0.705444,-0.403931,0.563904
145.5,0.6875,-310.625,21.28,-16.03,2.67,-22.75,1.25,-9,146.375,67.6875,210,0.15155,0.717529,-0.378235,0.564941
147.875,0.6875,-310.625,21.28,-16.03,2.67,-21.75,-6.5625,-7.5,151.438,69.25,211.062,0.157349,0.728943,-0.351929,0.565735
150.438,3.375,-312.125,20.53,-15.8,2.58,-21.75,-6.5625,-7.5,157.438,70.625,212.062,0.162903,0.739868,-0.325073,0.565979
153.812,-1.3125,-316,18.42,-14.93,1.95,-21.75,-6.5625,-7.5,164.375,71.625,213.062,0.167969,0.750488,-0.297607,0.565674
159.125,-6.625,-318.125,17.65,-14.45,1.82,-21.75,-6.5625,-7.5,172.062,72.1875,213.938,0.172424,0.760803,-0.269531,0.564636
164.812,-13.125,-319.812,16.99,-13.95,1.86,-21.75,-6.5625,-7.5,-179.812,72.25,214.75,0.176392,0.770813,-0.240967,0.562744
170.188,-13.125,-319.812,16.99,-13.95,1.86,-21.75,-11.1875,-6.6875,-172,71.875,215.562,0.179871,0.780396,-0.212097,0.559998
172.812,-18.5625,-319.938,16.1,-13.09,2.07,-19.5625,-11.1875,-6.6875,-164.812,71,216.375,0.183044,0.789429,-0.183228,0.556519
172.375,-26.125,-312.812,15.19,-12.22,1.73,-19.5625,-11.1875,-6.6875,-158.562,69.8125,217.188,0.185974,0.797791,-0.154724,0.552307
169.812,-28.6875,-305,14.62,-11.72,1.71,-19.5625,-11.1875,-6.6875,-153.375,68.375,218,0.188538,0.805359,-0.126831,0.547485
165.5,-31,-296.812,13.15,-10.77,1.56,-19.5625,-11.1875,-6.6875,-149.188,66.6875,218.812,0.19104,0.812195,-0.0997314,0.542175
159.688,-31,-296.812,13.15,-10.77,1.56,-19.5625,-18.6875,-3.875,-145.75,64.9375,219.625,0.193481,0.818298,-0.0734253,0.536316
151.938,-33.0625,-289.375,12.44,-10.3,1.49,-17,-18.6875,-3.875,-143,63.0625,220.562,0.196045,0.823608,-0.0479736,0.530029
143.562,-33.5625,-273.5,11.24,-9.64,0.9,-17,-18.6875,-3.875,-140.75,61.1875,221.5,0.198608,0.828186,-0.0233765,0.523499
135.875,-28.375,-262.75,10.09,-8.87,0.7,-17,-18.6875,-3.875,-138.875,59.3125,222.438,0.20105,0.831909,0.000244141,0.517212
129.75,-16.9375,-249.688,9.35,-8.46,0.64,-17,-18.6875,-3.875,-137.375,57.625,223.25,0.203125,0.834534,0.0229492,0.511658
124.625,-16.9375,-249.688,9.35,-8.03,0.57,-13.5625,-24.0625,-1.1875,-136,56.0625,223.938,0.204834,0.835938,0.0446167,0.507202
119.188,-0.8125,-234.75,8.56,-7.41,0.19,-13.5625,-24.0625,-1.1875,-134.688,54.6875,224.438,0.206116,0.836121,0.0651245,0.50415
112.625,34.875,-201.062,6.1,-7.29,-0.15,-13.5625,-24.0625,-1.1875,-133.5,53.5,224.75,0.207092,0.835205,0.0843506,0.502441
104.062,49.8125,-183.188,5.43,-7.21,-0.99,-13.5625,-24.0625,-1.1875,-132.312,52.5625,224.938,0.207947,0.833252,0.102112,0.502014
93.125,60.875,-164.812,4.82,-6.98,-1.81,-13.5625,-24.0625,-1.1875,-131.188,51.75,225.062,0.208557,0.830627,0.118225,0.502625
82.0625,60.875,-164.812,4.82,-6.31,-2.66,-8.6875,-26.1875,1.5625,-130.125,51.125,225,0.209045,0.827454,0.132751,0.503967
72.4375,67.1875,-146.375,3.49,-6.31,-2.96,-8.6875,-26.1875,1.5625,-129.125,50.5625,224.938,0.209351,0.824158,0.145569,0.505737
62.1875,67,-112.375,2.04,-5.59,-3.58,-8.6875,-26.1875,1.5625,-128.188,50.125,224.875,0.209717,0.82074,0.156799,0.507751
51.25,61.9375,-99.1875,1.33,-5.25,-5.33,-8.6875,-26.1875,1.5625,-127.312,49.75,224.812,0.210266,0.817444,0.166565,0.509705
42.1875,55.3125,-88.125,1.44,-5.2,-5.98,-8.6875,-26.1875,1.5625,-126.562,49.375,224.75,0.210632,0.814453,0.175232,0.511414
37.5,55.3125,-88.125,1.44,-5.2,-6.49,-5.6875,-28.0625,2.5625,-125.938,49.0625,224.625,0.210754,0.811768,0.182983,0.512939
36.0625,49.6875,-77.3125,1.49,-5.07,-6.83,-5.6875,-28.0625,2.5625,-125.5,48.8125,224.5,0.21051,0.809448,0.189819,0.514221
35.25,39.1875,-53.5625,2.1,-4.84,-6.91,-5.6875,-28.0625,2.5625,-125.125,48.5625,224.312,0.209961,0.807434,0.195618,0.515442
33.25,35.5625,-39.5625,2.34,-4.88,-6.77,-5.6875,-28.0625,2.5625,-124.812,48.4375,224.062,0.209106,0.805786,0.200195,0.516663
28.5,33.1875,-24.25,2.38,-4.83,-6.7,-5.6875,-28.0625,2.5625,-124.562,48.4375,223.75,0.208313,0.80426,0.203308,0.518127
19.625,33.1875,-24.25,2.38,-4.83,-6.7,-2.6875,-29.0625,5.375,-124.312,48.5625,223.5,0.207581,0.802856,0.204773,0.52002
8.0625,31.4375,-8.75,2.25,-4.58,-7.09,-2.6875,-29.0625,5.375,-124,48.75,223.25,0.207092,0.801575,0.204773,0.522217
-3.625,30.25,18.6875,2.17,-4.41,-7.29,-2.6875,-29.0625,5.375,-123.75,49.0625,222.938,0.206665,0.800293,0.20343,0.52478
-14.25,32.8125,31.25,2.29,-4.42,-7.22,-2.6875,-29.0625,5.375,-123.375,49.5,222.688,0.20636,0.79895,0.200806,0.528015
-24.25,32.8125,44.5625,2.71,-4.45,-7.28,-2.6875,-29.0625,5.375,-122.938,50.0625,222.312,0.206055,0.797424,0.196899,0.53186
-34.0625,37.25,44.5625,2.71,-4.45,-7.28,-2.6875,-29.0625,4.5,-122.5,50.75,221.938,0.205627,0.795715,0.19165,0.536438
-43.75,42.4375,59.6875,2.8,-4.37,-7.5,-3.5,-28.75,4.5,-122,51.625,221.438,0.204895,0.793945,0.185059,0.541687
-51.8125,45.875,89.8125,2.49,-4.11,-7.81,-3.5,-28.75,4.5,-121.562,52.625,220.875,0.204041,0.792175,0.177124,0.547241
-58.8125,46.5625,101.5,2.05,-3.7,-7.38,-3.5,-28.75,4.5,-121.125,53.6875,220.312,0.203064,0.790466,0.16803,0.552917
-65.625,44,110.312,2,-3.54,-6.85,-3.5,-28.75,4.5,-120.688,54.75,219.812,0.202271,0.788879,0.157898,0.558411
-73.6875,38.75,110.312,2,-3.54,-6.85,-3.5,-28.75,4.5,-120.312,55.9375,219.812,0.201904,0.787476,0.146606,0.563599
-84.625,32.0625,117.312,2.11,-3.38,-6.2,-4.6875,-28.6875,4.0625,-119.938,57.0625,219.125,0.202209,0.78595,0.134033,0.568665
-98.9375,26.3125,133.688,3.47,-3.48,-4.56,-4.6875,-28.6875,4.0625,-119.562,58.3125,219,0.203186,0.784363,0.119995,0.573669
-115.438,22.375,145.5,3.87,-3.61,-4.3,-4.6875,-28.6875,4.0625,-119.125,59.625,218.938,0.204773,0.782471,0.104187,0.578735
-133.75,19.125,158.125,4.15,-3.78,-4.04,-4.6875,-28.6875,4.0625,-118.75,61.0625,219,0.206848,0.780334,0.0866089,0.58374
-151.25,16.3125,158.125,4.15,-3.78,-4.04,-4.6875,-27.875,0.75,-118.375,62.5625,219.125,0.209412,0.777893,0.0673828,0.588684
-167.438,12.8125,169.75,4.68,-4.37,-3.65,-7.5625,-27.875,0.75,-118.125,64.125,219.312,0.21228,0.775085,0.0466919,0.593323
-181,8.625,185.875,5.35,-5.39,-3.71,-7.5625,-27.875,0.75,-118.062,65.6875,219.625,0.215332,0.772034,0.0250854,0.597473
-190.312,3.3125,189.188,6.38,-6.57,-3.42,-7.5625,-27.875,0.75,-118.188,67.3125,219.938,0.218445,0.768799,0.00286865,0.601013
-194.562,-2.375,189.75,6.99,-7.09,-3.08,-7.5625,-27.875,0.75,-118.625,68.9375,220.188,0.221252,0.765381,-0.0193481,0.604065
-192.875,-5,189.75,6.99,-7.09,-3.08,-7.5625,-27.875,-1.875,-119.25,70.5,220.438,0.223694,0.761475,-0.0412598,0.606934
-188.188,-3.25,189.375,7.61,-7.46,-2.54,-9.875,-27.1875,-1.875,-120.188,72.0625,220.562,0.225708,0.757141,-0.0627441,0.609802
-182.75,0.8125,191.375,9.44,-7.9,-0.89,-9.875,-27.1875,-1.875,-121.375,73.75,220.688,0.227295,0.752197,-0.0840454,0.612793
-178.75,6.8125,196.562,9.93,-8.11,-0.5,-9.875,-27.1875,-1.875,-122.938,75.375,220.688,0.228394,0.746521,-0.105469,0.615906
-177.438,12.625,204.188,10.22,-8.33,-0.33,-9.875,-27.1875,-1.875,-125.25,77.125,220.562,0.229004,0.740295,-0.127197,0.619141
-176.875,15.875,204.188,10.22,-8.33,-0.33,-9.875,-27.1875,-1.875,-128.875,78.875,220.562,0.228943,0.733643,-0.149353,0.62207
-175.312,14.375,212.625,10.34,-8.59,-0.18,-13.5625,-23.375,-5.5,-134.625,80.5,220.375,0.228149,0.726929,-0.171692,0.624512
-171.875,9,220.438,11.29,-9.11,0.7,-13.5625,-23.375,-5.5,-143.375,81.875,219.812,0.226868,0.720154,-0.194031,0.626282
-168.812,1.6875,222.188,12.2,-9.54,1.04,-13.5625,-23.375,-5.5,-156,82.9375,219.438,0.225037,0.71344,-0.21637,0.62738
-165.688,-4.75,225.188,14.31,-10.48,1.91,-13.5625,-23.375,-5.5,-179.125,83.5,219,0.222717,0.706421,-0.238647,0.627991
-162.375,-8,225.188,14.31,-10.48,1.91,-13.5625,-23.375,-11.1875,178.75,83.375,218.5,0.219788,0.698853,-0.260803,0.628723
-158.375,-3.8125,230.5,15.1,-10.76,2.24,-15.875,-19.25,-11.1875,152.875,82.6875,217.875,0.216309,0.690247,-0.282776,0.629944
-153.625,6,242.562,15.39,-10.96,2.71,-15.875,-19.25,-11.1875,139.438,81.5,217.125,0.212463,0.680542,-0.304443,0.631714
-149,18.6875,244.125,15.82,-10.88,3.47,-15.875,-19.25,-11.1875,129.188,80.0625,216.375,0.208618,0.669678,-0.325562,0.634033
-145.812,32.375,244.312,16.2,-10.74,4.05,-15.875,-19.25,-11.1875,121.5,78.375,215.688,0.205078,0.657715,-0.346313,0.63678
-146.938,46.625,244.312,16.2,-10.74,4.05,-15.875,-19.25,-11.1875,115.5,76.5625,215.688,0.202026,0.644409,-0.367065,0.639709
-152.938,60.125,246.125,16.58,-10.65,4.56,-18.5,-13,-12.875,110.875,74.5625,215,0.199524,0.6297,-0.388245,0.642578
-164.312,71.625,257.688,16.54,-10.74,4.59,-18.5,-13,-12.875,107.375,72.5,214,0.19751,0.613831,-0.410156,0.644958
-177.875,77.9375,261.812,16.31,-10.94,4.43,-18.5,-13,-12.875,105,70.25,213.688,0.19574,0.597046,-0.432678,0.646545
-190.812,78.125,262.312,16.38,-11.19,4.38,-18.5,-13,-12.875,103.438,68,213.375,0.194214,0.579834,-0.455444,0.647034
-201.438,74.9375,262.312,16.38,-11.19,4.38,-18.5,-13,-12.875,103.438,68,213.375,0.194214,0.562195,-0.478394,0.646362
-211.125,71.1875,260.812,16.98,-11.69,4.3,-19,-7,-14.5,102.562,65.6875,213.188,0.192993,0.544189,-0.501343,0.644714
-219.188,68.375,256.125,17.63,-11.85,4.52,-19,-7,-14.5,102.188,61.0625,213.125,0.191101,0.525818,-0.524109,0.64209
-225.875,66.5625,254.688,17.88,-11.71,4.87,-19,-7,-14.5,102.5,58.8125,213.188,0.19043,0.50708,-0.546753,0.638489
-233.062,64.5,253.312,18.15,-11.31,5.3,-19,-7,-14.5,103.062,56.5625,213.312,0.189941,0.487915,-0.569397,0.633789
-241.75,62.625,253.312,18.15,-11.31,5.3,-19,-7,-14.5,103.812,56.5625,213.312,0.189758,0.468201,-0.591919,0.627991
-251.188,62.375,251.375,18.18,-11.17,5.13,-19,-0.0625,-16.5,104.75,54.3125,213.562,0.189819,0.44812,-0.614258,0.621155
-259.375,61.375,245.062,18.26,-10.72,4.52,-19,-0.0625,-16.5,105.812,50,214.375,0.18988,0.427917,-0.636108,0.613342
-264.125,58.8125,239.5,18.01,-10.34,4.67,-19,-0.0625,-16.5,107.062,47.9375,214.875,0.189941,0.407776,-0.657349,0.604614
-265.062,54.875,230.188,17.8,-9.83,4.84,-19,-0.0625,-16.5,108.375,45.9375,215.375,0.190002,0.387939,-0.677612,0.595154
-263.375,51,230.188,17.8,-9.83,4.84,-19,-0.0625,-16.5,108.375,45.9375,215.375,0.190002,0.368896,-0.696716,0.585083
-259.688,46.1875,217.438,17.67,-9.28,5,-16.6875,7,-17,109.75,44.125,216,0.190125,0.350647,-0.714661,0.574463
-254.688,42.6875,187.312,18.08,-7.55,6.08,-16.6875,7,-17,112.75,40.875,217.5,0.191223,0.333191,-0.731506,0.563293
-251,40.375,174.25,18.15,-6.85,6.27,-16.6875,7,-17,114.25,39.5,218.438,0.192383,0.316406,-0.747375,0.551697
-249.062,40.1875,163.188,17.79,-5.43,6.66,-16.6875,7,-17,115.812,38.25,219.5,0.193909,0.300049,-0.762329,0.539673
-247.312,41.0625,163.188,17.79,-5.43,6.66,-16.6875,7,-17,117.438,38.25,219.5,0.195801,0.284302,-0.776428,0.527283
-244.625,41.375,151.375,17.34,-4.78,6.72,-15.1875,13.875,-15,119,37.125,220.75,0.198059,0.26947,-0.78949,0.514648
-239.375,40.5,117.75,16.66,-3.5,6.9,-15.1875,13.875,-15,120.562,35.3125,223.562,0.200806,0.255981,-0.801331,0.502014
-230.5,39.6875,96.625,16.37,-2.02,7.74,-15.1875,13.875,-15,122.125,34.75,225.25,0.204285,0.243896,-0.811768,0.489746
-218.312,42.875,75.8125,16.35,-1.3,7.9,-15.1875,13.875,-15,123.562,34.375,227.125,0.208618,0.233093,-0.820862,0.477844
-205.438,48.0625,75.8125,16.35,-1.3,7.9,-15.1875,13.875,-15,123.562,34.375,227.125,0.208618,0.233093,-0.828613,0.466553
-191.688,54.0625,57.4375,16.32,-0.71,7.63,-13,19.375,-12.0625,124.875,34.25,229.188,0.213806,0.223511,-0.835083,0.456238
-173.812,60.6875,41.1875,14.91,0.3,6.6,-13,19.375,-12.0625,127.062,34.4375,233.625,0.226196,0.207764,-0.840027,0.447266
-150.5,67.9375,26.4375,14.1,0.51,6.49,-13,19.375,-12.0625,127.812,34.75,235.812,0.233154,0.201843,-0.843384,0.440002
-123.188,74,11.125,13.29,0.78,6.42,-13,19.375,-12.0625,128.375,35.25,237.875,0.240295,0.197449,-0.845276,0.434509
-94,75.5625,-4.25,13.29,0.78,6.42,-13,19.375,-12.0625,128.375,35.25,237.875,0.240295,0.195007,-0.845825,0.430664
-64.0625,69.125,-19.5625,11.98,1.26,6.35,-11.0625,22.0625,-9.25,128.688,35.8125,239.625,0.252747,0.194763,-0.845398,0.428406
-34.5,54.625,-34.25,10.82,1.72,6.6,-11.0625,22.0625,-9.25,129,37,242,0.25708,0.196899,-0.844055,0.427429
-6.1875,34.4375,-49.5,10.44,1.85,6.72,-11.0625,22.0625,-9.25,129,37.5625,242.562,0.259888,0.201721,-0.84198,0.427612
20.5,10.625,-66.5625,10.57,1.5,6.29,-11.0625,22.0625,-9.25,129.062,38.125,242.625,0.261108,0.20929,-0.839111,0.428772
46.25,-15.1875,-85.1875,10.57,1.5,6.29,-11.0625,22.0625,-9.25,129.062,38.125,242.625,0.261108,0.219116,-0.835632,0.430725
72.75,-40,-104.438,11,1.22,6.19,-10.6875,22.0625,-8.875,129.125,38.6875,242.438,0.261108,0.232178,-0.830994,0.433838
99.1875,-60.25,-123.312,13.09,-0.2,6.25,-10.6875,22.0625,-8.875,129.062,39.8125,240.812,0.25708,0.247314,-0.825195,0.437927
123.562,-71.875,-140.312,13.99,-0.77,6.47,-10.6875,22.0625,-8.875,128.938,40.5625,239.688,0.254456,0.264038,-0.818054,0.443054
145.625,-75.75,-154.875,14.75,-1.27,7.1,-10.6875,22.0625,-8.875,128.688,41.375,238.562,0.252075,0.281677,-0.809509,0.449219
164.562,-70.6875,-166.688,14.75,-1.27,7.1,-10.6875,22.0625,-8.875,128.688,41.375,238.562,0.252075,0.281677,-0.809509,0.456177
177.875,-56.6875,-176.062,15.24,-1.76,7.65,-12.1875,21.25,-9,128.312,42.375,237.562,0.25061,0.299561,-0.799622,0.463623
184.375,-38.6875,-182.875,15.4,-3.74,7.71,-12.1875,21.25,-9,127.25,44.8125,236.062,0.25116,0.334534,-0.776428,0.471375
186.75,-22.125,-188.688,15.18,-4.63,7.43,-12.1875,21.25,-9,126.688,46.25,235.625,0.252869,0.351624,-0.763428,0.479187
188.188,-9.5625,-194.875,15.01,-5.5,7.22,-12.1875,21.25,-9,126.125,47.875,235.312,0.255188,0.368713,-0.749512,0.486938
190.562,-2.1875,-202.5,15.01,-5.5,7.22,-12.1875,21.25,-9,126.125,47.875,235.312,0.255188,0.368713,-0.734619,0.49469
194.938,3.8125,-212.062,15.8,-7.32,7.43,-15.1875,17.875,-11,125.562,49.5,235.062,0.258057,0.386108,-0.718506,0.502563
200.25,13.375,-220.688,16.54,-9.06,7.61,-15.1875,17.875,-11,124.312,53.3125,234.938,0.265625,0.420471,-0.701233,0.510742
205.125,26.375,-226.625,15.98,-10.74,7.03,-15.1875,17.875,-11,123.625,55.3125,234.938,0.270081,0.437073,-0.682922,0.519226
211.062,36.625,-229.562,15.55,-11.56,6.62,-15.1875,17.875,-11,122.875,57.4375,234.875,0.274414,0.453613,-0.663452,0.527954
220.75,40.4375,-233.125,15.55,-11.56,6.62,-15.1875,17.875,-11,122.875,57.4375,234.875,0.274414,0.453613,-0.642761,0.536743
233.938,38,-238.562,15.47,-12.35,6.25,-17.5,14.1875,-13.75,122.125,59.5625,234.75,0.278076,0.47052,-0.620667,0.545593
249.812,31.125,-245.438,16.7,-13.81,6.16,-17.5,14.1875,-13.75,121,63.9375,234,0.282593,0.506287,-0.597168,0.554199
266.062,23.125,-252,17.23,-13.98,6.58,-17.5,14.1875,-13.75,120.75,66.1875,233.438,0.283203,0.524902,-0.57251,0.562561
279.062,14.9375,-255.438,17.73,-14.26,7.02,-17.5,14.1875,-13.75,120.875,68.3125,232.688,0.282837,0.543518,-0.547058,0.570374
287.812,7.3125,-255.688,17.73,-14.26,7.02,-17.5,14.1875,-13.75,120.875,68.3125,232.688,0.282837,0.543518,-0.547058,0.570374
291.75,1.6875,-253.188,17.97,-14.78,7.35,-19.6875,8.5625,-16.5625,121.375,70.4375,231.938,0.281555,0.561829,-0.521057,0.577576
292.75,-3.9375,-250.062,18.17,-15.43,6.97,-19.6875,8.5625,-16.5625,124.375,74.4375,230.25,0.276855,0.597168,-0.468018,0.589661
294,-9.8125,-249.25,18.41,-15.83,6.82,-19.6875,8.5625,-16.5625,127.312,76.3125,229.438,0.273804,0.61438,-0.440552,0.594543
297.312,-12.0625,-251.5,19.32,-16.39,7.22,-19.6875,8.5625,-16.5625,131.562,78.1875,228.562,0.270447,0.630859,-0.412048,0.599243
302.75,-7.1875,-255.312,19.32,-16.39,7.22,-19.6875,8.5625,-16.5625,131.562,78.1875,228.562,0.270447,0.630859,-0.412048,0.599243
306.938,2.625,-256.188,19.47,-16.55,7.31,-21.1875,0.375,-19,137.562,80,227.688,0.267029,0.646301,-0.382568,0.603882
308.375,11.8125,-251.562,18.54,-16.82,6.75,-21.1875,0.375,-19,157.75,82.875,225.75,0.258911,0.673279,-0.322632,0.612854
308.812,16.75,-243.25,16.43,-16.33,5.7,-21.1875,0.375,-19,179.188,83.5625,224.688,0.253723,0.685303,-0.292664,0.616699
310.375,15.625,-235.875,15.35,-15.85,5.24,-21.1875,0.375,-19,-178.812,83.5625,223.562,0.247864,0.69696,-0.262451,0.619629
314,9,-234.062,15.35,-15.85,5.24,-21.1875,0.375,-19,-178.812,83.5625,223.562,0.247864,0.69696,-0.262451,0.619629
319.188,-1.9375,-237.938,14.47,-15.19,4.98,-22,-9.75,-16.5,-154.062,82.8125,222.438,0.241333,0.708618,-0.231628,0.621216
322.75,-15.75,-244,13.97,-13.77,4.29,-22,-9.75,-16.5,-136.188,79.6875,220.188,0.227112,0.732056,-0.16864,0.619751
323.938,-28.5625,-248.688,13.72,-13.37,4,-22,-9.75,-16.5,-132.188,77.6875,219.125,0.219482,0.743408,-0.136963,0.61676
322.75,-38.5625,-249,13.31,-13,3.73,-22,-9.75,-16.5,-130.062,75.625,218.062,0.211548,0.754089,-0.105652,0.612732
319.688,-45.5625,-245.938,13.31,-13,3.73,-22,-9.75,-16.5,-130.062,75.625,218.062,0.211548,0.754089,-0.105652,0.612732
315.125,-50.5625,-241.5,12.13,-12.21,2.99,-20.5,-19.75,-12.875,-129.062,73.5,217,0.20343,0.764038,-0.0748291,0.607605
310,-53.8125,-237,10.97,-11.27,2.53,-20.5,-19.75,-12.875,-128.938,69.3125,214.812,0.186768,0.781433,-0.0147705,0.595215
304.375,-53.6875,-232.188,10.16,-10.46,2.25,-20.5,-19.75,-12.875,-129.25,67.3125,213.688,0.178284,0.788513,0.0142822,0.588501
297.938,-49.1875,-225.5,9.4,-9.98,2.18,-20.5,-19.75,-12.875,-129.75,65.5,212.438,0.169495,0.79425,0.0424194,0.58197
291.188,-40.1875,-214.062,9.4,-9.98,2.18,-20.5,-19.75,-12.875,-129.75,65.5,212.438,0.169495,0.79425,0.0424194,0.58197
283.625,-29.25,-199.375,8.49,-9.42,2.04,-17.5,-28,-2.6875,-130.312,63.8125,211.062,0.160278,0.798706,0.0692749,0.575867
